[
  {
    "STUDYID": "CDISCPILOT01",
    "DOMAIN": "AE",
    "USUBJID": "01-701-1015",
    "AESEQ": 1.0,
    "AESPID": "E07",
    "AETERM": "APPLICATION SITE ERYTHEMA",
    "AELLT": "APPLICATION SITE REDNESS",
    "AELLTCD": "",
    "AEDECOD": "APPLICATION SITE ERYTHEMA",
    "AEPTCD": "",
    "AEHLT": "HLT_0617",
    "AEHLTCD": "",
    "AEHLGT": "HLGT_0152",
    "AEHLGTCD": "",
    "AEBODSYS": "GENERAL DISORDERS AND ADMINISTRATION SITE CONDITIONS",
    "AEBDSYCD": "",
    "AESOC": "GENERAL DISORDERS AND ADMINISTRATION SITE CONDITIONS",
    "AESOCCD": "",
    "AESEV": "MILD",
    "AESER": "N",
    "AEACN": "",
    "AEREL": "PROBABLE",
    "AEOUT": "NOT RECOVERED/NOT RESOLVED",
    "AESCAN": "N",
    "AESCONG": "N",
    "AESDISAB": "N",
    "AESDTH": "N",
    "AESHOSP": "N",
    "AESLIFE": "N",
    "AESOD": "N",
    "AEDTC": "2014-01-16",
    "AESTDTC": "2014-01-03",
    "AEENDTC": "",
    "AESTDY": 2.0,
    "AEENDY": ""
  },
  {
    "STUDYID": "CDISCPILOT01",
    "DOMAIN": "AE",
    "USUBJID": "01-701-1015",
    "AESEQ": 2.0,
    "AESPID": "E08",
    "AETERM": "APPLICATION SITE PRURITUS",
    "AELLT": "APPLICATION SITE ITCHING",
    "AELLTCD": "",
    "AEDECOD": "APPLICATION SITE PRURITUS",
    "AEPTCD": "",
    "AEHLT": "HLT_0317",
    "AEHLTCD": "",
    "AEHLGT": "HLGT_0338",
    "AEHLGTCD": "",
    "AEBODSYS": "GENERAL DISORDERS AND ADMINISTRATION SITE CONDITIONS",
    "AEBDSYCD": "",
    "AESOC": "GENERAL DISORDERS AND ADMINISTRATION SITE CONDITIONS",
    "AESOCCD": "",
    "AESEV": "MILD",
    "AESER": "N",
    "AEACN": "",
    "AEREL": "PROBABLE",
    "AEOUT": "NOT RECOVERED/NOT RESOLVED",
    "AESCAN": "N",
    "AESCONG": "N",
    "AESDISAB": "N",
    "AESDTH": "N",
    "AESHOSP": "N",
    "AESLIFE": "N",
    "AESOD": "N",
    "AEDTC": "2014-01-16",
    "AESTDTC": "2014-01-03",
    "AEENDTC": "",
    "AESTDY": 2.0,
    "AEENDY": ""
  },
  {
    "STUDYID": "CDISCPILOT01",
    "DOMAIN": "AE",
    "USUBJID": "01-701-1015",
    "AESEQ": 3.0,
    "AESPID": "E06",
    "AETERM": "DIARRHOEA",
    "AELLT": "DIARRHEA",
    "AELLTCD": "",
    "AEDECOD": "DIARRHOEA",
    "AEPTCD": "",
    "AEHLT": "HLT_0148",
    "AEHLTCD": "",
    "AEHLGT": "HLGT_0588",
    "AEHLGTCD": "",
    "AEBODSYS": "GASTROINTESTINAL DISORDERS",
    "AEBDSYCD": "",
    "AESOC": "GASTROINTESTINAL DISORDERS",
    "AESOCCD": "",
    "AESEV": "MILD",
    "AESER": "N",
    "AEACN": "",
    "AEREL": "REMOTE",
    "AEOUT": "RECOVERED/RESOLVED",
    "AESCAN": "N",
    "AESCONG": "N",
    "AESDISAB": "N",
    "AESDTH": "N",
    "AESHOSP": "N",
    "AESLIFE": "N",
    "AESOD": "N",
    "AEDTC": "2014-01-16",
    "AESTDTC": "2014-01-09",
    "AEENDTC": "2014-01-11",
    "AESTDY": 8.0,
    "AEENDY": 10.0
  },
  {
    "STUDYID": "CDISCPILOT01",
    "DOMAIN": "AE",
    "USUBJID": "01-701-1023",
    "AESEQ": 3.0,
    "AESPID": "E10",
    "AETERM": "ATRIOVENTRICULAR BLOCK SECOND DEGREE",
    "AELLT": "AV BLOCK SECOND DEGREE",
    "AELLTCD": "",
    "AEDECOD": "ATRIOVENTRICULAR BLOCK SECOND DEGREE",
    "AEPTCD": "",
    "AEHLT": "HLT_0415",
    "AEHLTCD": "",
    "AEHLGT": "HLGT_0086",
    "AEHLGTCD": "",
    "AEBODSYS": "CARDIAC DISORDERS",
    "AEBDSYCD": "",
    "AESOC": "CARDIAC DISORDERS",
    "AESOCCD": "",
    "AESEV": "MILD",
    "AESER": "N",
    "AEACN": "",
    "AEREL": "POSSIBLE",
    "AEOUT": "NOT RECOVERED/NOT RESOLVED",
    "AESCAN": "N",
    "AESCONG": "N",
    "AESDISAB": "N",
    "AESDTH": "N",
    "AESHOSP": "N",
    "AESLIFE": "N",
    "AESOD": "N",
    "AEDTC": "2012-08-27",
    "AESTDTC": "2012-08-26",
    "AEENDTC": "",
    "AESTDY": 22.0,
    "AEENDY": ""
  },
  {
    "STUDYID": "CDISCPILOT01",
    "DOMAIN": "AE",
    "USUBJID": "01-701-1023",
    "AESEQ": 1.0,
    "AESPID": "E08",
    "AETERM": "ERYTHEMA",
    "AELLT": "ERYTHEMA",
    "AELLTCD": "",
    "AEDECOD": "ERYTHEMA",
    "AEPTCD": "",
    "AEHLT": "HLT_0284",
    "AEHLTCD": "",
    "AEHLGT": "HLGT_0192",
    "AEHLGTCD": "",
    "AEBODSYS": "SKIN AND SUBCUTANEOUS TISSUE DISORDERS",
    "AEBDSYCD": "",
    "AESOC": "SKIN AND SUBCUTANEOUS TISSUE DISORDERS",
    "AESOCCD": "",
    "AESEV": "MILD",
    "AESER": "N",
    "AEACN": "",
    "AEREL": "POSSIBLE",
    "AEOUT": "NOT RECOVERED/NOT RESOLVED",
    "AESCAN": "N",
    "AESCONG": "N",
    "AESDISAB": "N",
    "AESDTH": "N",
    "AESHOSP": "N",
    "AESLIFE": "N",
    "AESOD": "N",
    "AEDTC": "2012-08-27",
    "AESTDTC": "2012-08-07",
    "AEENDTC": "2012-08-30",
    "AESTDY": 3.0,
    "AEENDY": 26.0
  },
  {
    "STUDYID": "CDISCPILOT01",
    "DOMAIN": "AE",
    "USUBJID": "01-701-1023",
    "AESEQ": 2.0,
    "AESPID": "E09",
    "AETERM": "ERYTHEMA",
    "AELLT": "LOCALIZED ERYTHEMA",
    "AELLTCD": "",
    "AEDECOD": "ERYTHEMA",
    "AEPTCD": "",
    "AEHLT": "HLT_0284",
    "AEHLTCD": "",
    "AEHLGT": "HLGT_0192",
    "AEHLGTCD": "",
    "AEBODSYS": "SKIN AND SUBCUTANEOUS TISSUE DISORDERS",
    "AEBDSYCD": "",
    "AESOC": "SKIN AND SUBCUTANEOUS TISSUE DISORDERS",
    "AESOCCD": "",
    "AESEV": "MODERATE",
    "AESER": "N",
    "AEACN": "",
    "AEREL": "PROBABLE",
    "AEOUT": "NOT RECOVERED/NOT RESOLVED",
    "AESCAN": "N",
    "AESCONG": "N",
    "AESDISAB": "N",
    "AESDTH": "N",
    "AESHOSP": "N",
    "AESLIFE": "N",
    "AESOD": "N",
    "AEDTC": "2012-08-27",
    "AESTDTC": "2012-08-07",
    "AEENDTC": "",
    "AESTDY": 3.0,
    "AEENDY": ""
  },
  {
    "STUDYID": "CDISCPILOT01",
    "DOMAIN": "AE",
    "USUBJID": "01-701-1023",
    "AESEQ": 4.0,
    "AESPID": "E08",
    "AETERM": "ERYTHEMA",
    "AELLT": "ERYTHEMA",
    "AELLTCD": "",
    "AEDECOD": "ERYTHEMA",
    "AEPTCD": "",
    "AEHLT": "HLT_0284",
    "AEHLTCD": "",
    "AEHLGT": "HLGT_0192",
    "AEHLGTCD": "",
    "AEBODSYS": "SKIN AND SUBCUTANEOUS TISSUE DISORDERS",
    "AEBDSYCD": "",
    "AESOC": "SKIN AND SUBCUTANEOUS TISSUE DISORDERS",
    "AESOCCD": "",
    "AESEV": "MILD",
    "AESER": "N",
    "AEACN": "",
    "AEREL": "POSSIBLE",
    "AEOUT": "RECOVERED/RESOLVED",
    "AESCAN": "N",
    "AESCONG": "N",
    "AESDISAB": "N",
    "AESDTH": "N",
    "AESHOSP": "N",
    "AESLIFE": "N",
    "AESOD": "N",
    "AEDTC": "2012-09-02",
    "AESTDTC": "2012-08-07",
    "AEENDTC": "2012-08-30",
    "AESTDY": 3.0,
    "AEENDY": 26.0
  },
  {
    "STUDYID": "CDISCPILOT01",
    "DOMAIN": "AE",
    "USUBJID": "01-701-1028",
    "AESEQ": 1.0,
    "AESPID": "E04",
    "AETERM": "APPLICATION SITE ERYTHEMA",
    "AELLT": "APPLICATION SITE ERYTHEMA",
    "AELLTCD": "",
    "AEDECOD": "APPLICATION SITE ERYTHEMA",
    "AEPTCD": "",
    "AEHLT": "HLT_0617",
    "AEHLTCD": "",
    "AEHLGT": "HLGT_0152",
    "AEHLGTCD": "",
    "AEBODSYS": "GENERAL DISORDERS AND ADMINISTRATION SITE CONDITIONS",
    "AEBDSYCD": "",
    "AESOC": "GENERAL DISORDERS AND ADMINISTRATION SITE CONDITIONS",
    "AESOCCD": "",
    "AESEV": "MILD",
    "AESER": "N",
    "AEACN": "",
    "AEREL": "POSSIBLE",
    "AEOUT": "NOT RECOVERED/NOT RESOLVED",
    "AESCAN": "N",
    "AESCONG": "N",
    "AESDISAB": "N",
    "AESDTH": "N",
    "AESHOSP": "N",
    "AESLIFE": "N",
    "AESOD": "N",
    "AEDTC": "2013-08-01",
    "AESTDTC": "2013-07-21",
    "AEENDTC": "",
    "AESTDY": 3.0,
    "AEENDY": ""
  },
  {
    "STUDYID": "CDISCPILOT01",
    "DOMAIN": "AE",
    "USUBJID": "01-701-1028",
    "AESEQ": 2.0,
    "AESPID": "E05",
    "AETERM": "APPLICATION SITE PRURITUS",
    "AELLT": "APPLICATION SITE ITCHING",
    "AELLTCD": "",
    "AEDECOD": "APPLICATION SITE PRURITUS",
    "AEPTCD": "",
    "AEHLT": "HLT_0317",
    "AEHLTCD": "",
    "AEHLGT": "HLGT_0338",
    "AEHLGTCD": "",
    "AEBODSYS": "GENERAL DISORDERS AND ADMINISTRATION SITE CONDITIONS",
    "AEBDSYCD": "",
    "AESOC": "GENERAL DISORDERS AND ADMINISTRATION SITE CONDITIONS",
    "AESOCCD": "",
    "AESEV": "MILD",
    "AESER": "N",
    "AEACN": "",
    "AEREL": "PROBABLE",
    "AEOUT": "NOT RECOVERED/NOT RESOLVED",
    "AESCAN": "N",
    "AESCONG": "N",
    "AESDISAB": "N",
    "AESDTH": "N",
    "AESHOSP": "N",
    "AESLIFE": "N",
    "AESOD": "N",
    "AEDTC": "2013-08-14",
    "AESTDTC": "2013-08-08",
    "AEENDTC": "",
    "AESTDY": 21.0,
    "AEENDY": ""
  },
  {
    "STUDYID": "CDISCPILOT01",
    "DOMAIN": "AE",
    "USUBJID": "01-701-1034",
    "AESEQ": 1.0,
    "AESPID": "E08",
    "AETERM": "APPLICATION SITE PRURITUS",
    "AELLT": "APPLICATION SITE ITCHING",
    "AELLTCD": "",
    "AEDECOD": "APPLICATION SITE PRURITUS",
    "AEPTCD": "",
    "AEHLT": "HLT_0317",
    "AEHLTCD": "",
    "AEHLGT": "HLGT_0338",
    "AEHLGTCD": "",
    "AEBODSYS": "GENERAL DISORDERS AND ADMINISTRATION SITE CONDITIONS",
    "AEBDSYCD": "",
    "AESOC": "GENERAL DISORDERS AND ADMINISTRATION SITE CONDITIONS",
    "AESOCCD": "",
    "AESEV": "MILD",
    "AESER": "N",
    "AEACN": "",
    "AEREL": "PROBABLE",
    "AEOUT": "NOT RECOVERED/NOT RESOLVED",
    "AESCAN": "N",
    "AESCONG": "N",
    "AESDISAB": "N",
    "AESDTH": "N",
    "AESHOSP": "N",
    "AESLIFE": "N",
    "AESOD": "N",
    "AEDTC": "2014-09-25",
    "AESTDTC": "2014-08-27",
    "AEENDTC": "",
    "AESTDY": 58.0,
    "AEENDY": ""
  },
  {
    "STUDYID": "CDISCPILOT01",
    "DOMAIN": "AE",
    "USUBJID": "01-701-1034",
    "AESEQ": 2.0,
    "AESPID": "E07",
    "AETERM": "FATIGUE",
    "AELLT": "FATIGUE",
    "AELLTCD": "",
    "AEDECOD": "FATIGUE",
    "AEPTCD": "",
    "AEHLT": "HLT_0043",
    "AEHLTCD": "",
    "AEHLGT": "HLGT_0181",
    "AEHLGTCD": "",
    "AEBODSYS": "GENERAL DISORDERS AND ADMINISTRATION SITE CONDITIONS",
    "AEBDSYCD": "",
    "AESOC": "GENERAL DISORDERS AND ADMINISTRATION SITE CONDITIONS",
    "AESOCCD": "",
    "AESEV": "MILD",
    "AESER": "N",
    "AEACN": "",
    "AEREL": "POSSIBLE",
    "AEOUT": "NOT RECOVERED/NOT RESOLVED",
    "AESCAN": "N",
    "AESCONG": "N",
    "AESDISAB": "N",
    "AESDTH": "N",
    "AESHOSP": "N",
    "AESLIFE": "N",
    "AESOD": "N",
    "AEDTC": "2014-11-18",
    "AESTDTC": "2014-11-02",
    "AEENDTC": "",
    "AESTDY": 125.0,
    "AEENDY": ""
  },
  {
    "STUDYID": "CDISCPILOT01",
    "DOMAIN": "AE",
    "USUBJID": "01-701-1047",
    "AESEQ": 4.0,
    "AESPID": "E09",
    "AETERM": "BUNDLE BRANCH BLOCK LEFT",
    "AELLT": "LEFT BUNDLE BRANCH BLOCK",
    "AELLTCD": "",
    "AEDECOD": "BUNDLE BRANCH BLOCK LEFT",
    "AEPTCD": "",
    "AEHLT": "HLT_0281",
    "AEHLTCD": "",
    "AEHLGT": "HLGT_0721",
    "AEHLGTCD": "",
    "AEBODSYS": "CARDIAC DISORDERS",
    "AEBDSYCD": "",
    "AESOC": "CARDIAC DISORDERS",
    "AESOCCD": "",
    "AESEV": "MILD",
    "AESER": "N",
    "AEACN": "",
    "AEREL": "NONE",
    "AEOUT": "NOT RECOVERED/NOT RESOLVED",
    "AESCAN": "N",
    "AESCONG": "N",
    "AESDISAB": "N",
    "AESDTH": "N",
    "AESHOSP": "N",
    "AESLIFE": "N",
    "AESOD": "N",
    "AEDTC": "2013-03-10",
    "AESTDTC": "2013-03-10",
    "AEENDTC": "",
    "AESTDY": 27.0,
    "AEENDY": ""
  },
  {
    "STUDYID": "CDISCPILOT01",
    "DOMAIN": "AE",
    "USUBJID": "01-701-1047",
    "AESEQ": 1.0,
    "AESPID": "E06",
    "AETERM": "HIATUS HERNIA",
    "AELLT": "HERNIA HIATAL",
    "AELLTCD": "",
    "AEDECOD": "HIATUS HERNIA",
    "AEPTCD": "",
    "AEHLT": "HLT_0159",
    "AEHLTCD": "",
    "AEHLGT": "HLGT_0109",
    "AEHLGTCD": "",
    "AEBODSYS": "GASTROINTESTINAL DISORDERS",
    "AEBDSYCD": "",
    "AESOC": "GASTROINTESTINAL DISORDERS",
    "AESOCCD": "",
    "AESEV": "MODERATE",
    "AESER": "N",
    "AEACN": "",
    "AEREL": "NONE",
    "AEOUT": "NOT RECOVERED/NOT RESOLVED",
    "AESCAN": "N",
    "AESCONG": "N",
    "AESDISAB": "N",
    "AESDTH": "N",
    "AESHOSP": "N",
    "AESLIFE": "N",
    "AESOD": "N",
    "AEDTC": "2013-02-12",
    "AESTDTC": "2013-02-12",
    "AEENDTC": "2013-02-12",
    "AESTDY": 1.0,
    "AEENDY": 1.0
  },
  {
    "STUDYID": "CDISCPILOT01",
    "DOMAIN": "AE",
    "USUBJID": "01-701-1047",
    "AESEQ": 2.0,
    "AESPID": "E06",
    "AETERM": "HIATUS HERNIA",
    "AELLT": "HERNIA HIATAL",
    "AELLTCD": "",
    "AEDECOD": "HIATUS HERNIA",
    "AEPTCD": "",
    "AEHLT": "HLT_0159",
    "AEHLTCD": "",
    "AEHLGT": "HLGT_0109",
    "AEHLGTCD": "",
    "AEBODSYS": "GASTROINTESTINAL DISORDERS",
    "AEBDSYCD": "",
    "AESOC": "GASTROINTESTINAL DISORDERS",
    "AESOCCD": "",
    "AESEV": "MODERATE",
    "AESER": "N",
    "AEACN": "",
    "AEREL": "NONE",
    "AEOUT": "RECOVERED/RESOLVED",
    "AESCAN": "N",
    "AESCONG": "N",
    "AESDISAB": "N",
    "AESDTH": "N",
    "AESHOSP": "N",
    "AESLIFE": "N",
    "AESOD": "N",
    "AEDTC": "2013-02-25",
    "AESTDTC": "2013-02-12",
    "AEENDTC": "2013-02-12",
    "AESTDY": 1.0,
    "AEENDY": 1.0
  },
  {
    "STUDYID": "CDISCPILOT01",
    "DOMAIN": "AE",
    "USUBJID": "01-701-1047",
    "AESEQ": 3.0,
    "AESPID": "E08",
    "AETERM": "UPPER RESPIRATORY TRACT INFECTION",
    "AELLT": "UPPER RESPIRATORY INFECTION",
    "AELLTCD": "",
    "AEDECOD": "UPPER RESPIRATORY TRACT INFECTION",
    "AEPTCD": "",
    "AEHLT": "HLT_0520",
    "AEHLTCD": "",
    "AEHLGT": "HLGT_0489",
    "AEHLGTCD": "",
    "AEBODSYS": "INFECTIONS AND INFESTATIONS",
    "AEBDSYCD": "",
    "AESOC": "INFECTIONS AND INFESTATIONS",
    "AESOCCD": "",
    "AESEV": "MILD",
    "AESER": "N",
    "AEACN": "",
    "AEREL": "NONE",
    "AEOUT": "NOT RECOVERED/NOT RESOLVED",
    "AESCAN": "N",
    "AESCONG": "N",
    "AESDISAB": "N",
    "AESDTH": "N",
    "AESHOSP": "N",
    "AESLIFE": "N",
    "AESOD": "N",
    "AEDTC": "2013-03-10",
    "AESTDTC": "2013-03-06",
    "AEENDTC": "",
    "AESTDY": 23.0,
    "AEENDY": ""
  },
  {
    "STUDYID": "CDISCPILOT01",
    "DOMAIN": "AE",
    "USUBJID": "01-701-1097",
    "AESEQ": 4.0,
    "AESPID": "E06",
    "AETERM": "APPLICATION SITE PRURITUS",
    "AELLT": "APPLICATION SITE ITCHING",
    "AELLTCD": "",
    "AEDECOD": "APPLICATION SITE PRURITUS",
    "AEPTCD": "",
    "AEHLT": "HLT_0317",
    "AEHLTCD": "",
    "AEHLGT": "HLGT_0338",
    "AEHLGTCD": "",
    "AEBODSYS": "GENERAL DISORDERS AND ADMINISTRATION SITE CONDITIONS",
    "AEBDSYCD": "",
    "AESOC": "GENERAL DISORDERS AND ADMINISTRATION SITE CONDITIONS",
    "AESOCCD": "",
    "AESEV": "MILD",
    "AESER": "N",
    "AEACN": "",
    "AEREL": "POSSIBLE",
    "AEOUT": "NOT RECOVERED/NOT RESOLVED",
    "AESCAN": "N",
    "AESCONG": "N",
    "AESDISAB": "N",
    "AESDTH": "N",
    "AESHOSP": "N",
    "AESLIFE": "N",
    "AESOD": "N",
    "AEDTC": "2014-02-26",
    "AESTDTC": "2014-02-21",
    "AEENDTC": "",
    "AESTDY": 52.0,
    "AEENDY": ""
  },
  {
    "STUDYID": "CDISCPILOT01",
    "DOMAIN": "AE",
    "USUBJID": "01-701-1097",
    "AESEQ": 10.0,
    "AESPID": "E06",
    "AETERM": "APPLICATION SITE PRURITUS",
    "AELLT": "APPLICATION SITE ITCHING",
    "AELLTCD": "",
    "AEDECOD": "APPLICATION SITE PRURITUS",
    "AEPTCD": "",
    "AEHLT": "HLT_0317",
    "AEHLTCD": "",
    "AEHLGT": "HLGT_0338",
    "AEHLGTCD": "",
    "AEBODSYS": "GENERAL DISORDERS AND ADMINISTRATION SITE CONDITIONS",
    "AEBDSYCD": "",
    "AESOC": "GENERAL DISORDERS AND ADMINISTRATION SITE CONDITIONS",
    "AESOCCD": "",
    "AESEV": "MODERATE",
    "AESER": "N",
    "AEACN": "",
    "AEREL": "POSSIBLE",
    "AEOUT": "NOT RECOVERED/NOT RESOLVED",
    "AESCAN": "N",
    "AESCONG": "N",
    "AESDISAB": "N",
    "AESDTH": "N",
    "AESHOSP": "N",
    "AESLIFE": "N",
    "AESOD": "N",
    "AEDTC": "2014-05-21",
    "AESTDTC": "2014-02-21",
    "AEENDTC": "",
    "AESTDY": 52.0,
    "AEENDY": ""
  },
  {
    "STUDYID": "CDISCPILOT01",
    "DOMAIN": "AE",
    "USUBJID": "01-701-1097",
    "AESEQ": 3.0,
    "AESPID": "E07",
    "AETERM": "APPLICATION SITE VESICLES",
    "AELLT": "APPLICATION SITE BLISTER",
    "AELLTCD": "",
    "AEDECOD": "APPLICATION SITE VESICLES",
    "AEPTCD": "",
    "AEHLT": "HLT_0180",
    "AEHLTCD": "",
    "AEHLGT": "HLGT_0576",
    "AEHLGTCD": "",
    "AEBODSYS": "GENERAL DISORDERS AND ADMINISTRATION SITE CONDITIONS",
    "AEBDSYCD": "",
    "AESOC": "GENERAL DISORDERS AND ADMINISTRATION SITE CONDITIONS",
    "AESOCCD": "",
    "AESEV": "MILD",
    "AESER": "N",
    "AEACN": "",
    "AEREL": "PROBABLE",
    "AEOUT": "RECOVERED/RESOLVED",
    "AESCAN": "N",
    "AESCONG": "N",
    "AESDISAB": "N",
    "AESDTH": "N",
    "AESHOSP": "N",
    "AESLIFE": "N",
    "AESOD": "N",
    "AEDTC": "2014-02-26",
    "AESTDTC": "2014-02-20",
    "AEENDTC": "2014-02-22",
    "AESTDY": 51.0,
    "AEENDY": 53.0
  },
  {
    "STUDYID": "CDISCPILOT01",
    "DOMAIN": "AE",
    "USUBJID": "01-701-1097",
    "AESEQ": 1.0,
    "AESPID": "E04",
    "AETERM": "ERYTHEMA",
    "AELLT": "ERYTHEMA",
    "AELLTCD": "",
    "AEDECOD": "ERYTHEMA",
    "AEPTCD": "",
    "AEHLT": "HLT_0284",
    "AEHLTCD": "",
    "AEHLGT": "HLGT_0192",
    "AEHLGTCD": "",
    "AEBODSYS": "SKIN AND SUBCUTANEOUS TISSUE DISORDERS",
    "AEBDSYCD": "",
    "AESOC": "SKIN AND SUBCUTANEOUS TISSUE DISORDERS",
    "AESOCCD": "",
    "AESEV": "MILD",
    "AESER": "N",
    "AEACN": "",
    "AEREL": "POSSIBLE",
    "AEOUT": "NOT RECOVERED/NOT RESOLVED",
    "AESCAN": "N",
    "AESCONG": "N",
    "AESDISAB": "N",
    "AESDTH": "N",
    "AESHOSP": "N",
    "AESLIFE": "N",
    "AESOD": "N",
    "AEDTC": "2014-01-15",
    "AESTDTC": "2014-01-03",
    "AEENDTC": "",
    "AESTDY": 3.0,
    "AEENDY": ""
  },
  {
    "STUDYID": "CDISCPILOT01",
    "DOMAIN": "AE",
    "USUBJID": "01-701-1097",
    "AESEQ": 9.0,
    "AESPID": "E11",
    "AETERM": "NASAL CONGESTION",
    "AELLT": "NASAL CONGESTION",
    "AELLTCD": "",
    "AEDECOD": "NASAL CONGESTION",
    "AEPTCD": "",
    "AEHLT": "HLT_0118",
    "AEHLTCD": "",
    "AEHLGT": "HLGT_0549",
    "AEHLGTCD": "",
    "AEBODSYS": "RESPIRATORY, THORACIC AND MEDIASTINAL DISORDERS",
    "AEBDSYCD": "",
    "AESOC": "RESPIRATORY, THORACIC AND MEDIASTINAL DISORDERS",
    "AESOCCD": "",
    "AESEV": "MILD",
    "AESER": "N",
    "AEACN": "",
    "AEREL": "NONE",
    "AEOUT": "RECOVERED/RESOLVED",
    "AESCAN": "N",
    "AESCONG": "N",
    "AESDISAB": "N",
    "AESDTH": "N",
    "AESHOSP": "N",
    "AESLIFE": "N",
    "AESOD": "N",
    "AEDTC": "2014-04-23",
    "AESTDTC": "2014-04-19",
    "AEENDTC": "2014-04-22",
    "AESTDY": 109.0,
    "AEENDY": 112.0
  },
  {
    "STUDYID": "CDISCPILOT01",
    "DOMAIN": "AE",
    "USUBJID": "01-701-1097",
    "AESEQ": 8.0,
    "AESPID": "E10",
    "AETERM": "PHARYNGOLARYNGEAL PAIN",
    "AELLT": "SORE THROAT",
    "AELLTCD": "",
    "AEDECOD": "PHARYNGOLARYNGEAL PAIN",
    "AEPTCD": "",
    "AEHLT": "HLT_0130",
    "AEHLTCD": "",
    "AEHLGT": "HLGT_0402",
    "AEHLGTCD": "",
    "AEBODSYS": "RESPIRATORY, THORACIC AND MEDIASTINAL DISORDERS",
    "AEBDSYCD": "",
    "AESOC": "RESPIRATORY, THORACIC AND MEDIASTINAL DISORDERS",
    "AESOCCD": "",
    "AESEV": "MILD",
    "AESER": "N",
    "AEACN": "",
    "AEREL": "NONE",
    "AEOUT": "RECOVERED/RESOLVED",
    "AESCAN": "N",
    "AESCONG": "N",
    "AESDISAB": "N",
    "AESDTH": "N",
    "AESHOSP": "N",
    "AESLIFE": "N",
    "AESOD": "N",
    "AEDTC": "2014-04-23",
    "AESTDTC": "2014-04-19",
    "AEENDTC": "2014-04-22",
    "AESTDY": 109.0,
    "AEENDY": 112.0
  },
  {
    "STUDYID": "CDISCPILOT01",
    "DOMAIN": "AE",
    "USUBJID": "01-701-1097",
    "AESEQ": 2.0,
    "AESPID": "E05",
    "AETERM": "PRURITUS GENERALISED",
    "AELLT": "GENERALIZED PRURITUS",
    "AELLTCD": "",
    "AEDECOD": "PRURITUS GENERALISED",
    "AEPTCD": "",
    "AEHLT": "HLT_0123",
    "AEHLTCD": "",
    "AEHLGT": "HLGT_0689",
    "AEHLGTCD": "",
    "AEBODSYS": "SKIN AND SUBCUTANEOUS TISSUE DISORDERS",
    "AEBDSYCD": "",
    "AESOC": "SKIN AND SUBCUTANEOUS TISSUE DISORDERS",
    "AESOCCD": "",
    "AESEV": "MODERATE",
    "AESER": "N",
    "AEACN": "",
    "AEREL": "POSSIBLE",
    "AEOUT": "RECOVERED/RESOLVED",
    "AESCAN": "N",
    "AESCONG": "N",
    "AESDISAB": "N",
    "AESDTH": "N",
    "AESHOSP": "N",
    "AESLIFE": "N",
    "AESOD": "N",
    "AEDTC": "2014-02-26",
    "AESTDTC": "2014-02-20",
    "AEENDTC": "2014-02-20",
    "AESTDY": 51.0,
    "AEENDY": 51.0
  },
  {
    "STUDYID": "CDISCPILOT01",
    "DOMAIN": "AE",
    "USUBJID": "01-701-1097",
    "AESEQ": 5.0,
    "AESPID": "E08",
    "AETERM": "PRURITUS GENERALISED",
    "AELLT": "GENERALIZED PRURITUS",
    "AELLTCD": "",
    "AEDECOD": "PRURITUS GENERALISED",
    "AEPTCD": "",
    "AEHLT": "HLT_0123",
    "AEHLTCD": "",
    "AEHLGT": "HLGT_0689",
    "AEHLGTCD": "",
    "AEBODSYS": "SKIN AND SUBCUTANEOUS TISSUE DISORDERS",
    "AEBDSYCD": "",
    "AESOC": "SKIN AND SUBCUTANEOUS TISSUE DISORDERS",
    "AESOCCD": "",
    "AESEV": "MODERATE",
    "AESER": "N",
    "AEACN": "",
    "AEREL": "POSSIBLE",
    "AEOUT": "RECOVERED/RESOLVED",
    "AESCAN": "N",
    "AESCONG": "N",
    "AESDISAB": "N",
    "AESDTH": "N",
    "AESHOSP": "N",
    "AESLIFE": "N",
    "AESOD": "N",
    "AEDTC": "2014-03-26",
    "AESTDTC": "2014-03-21",
    "AEENDTC": "2014-03-21",
    "AESTDY": 80.0,
    "AEENDY": 80.0
  },
  {
    "STUDYID": "CDISCPILOT01",
    "DOMAIN": "AE",
    "USUBJID": "01-701-1097",
    "AESEQ": 6.0,
    "AESPID": "E12",
    "AETERM": "PRURITUS GENERALISED",
    "AELLT": "GENERALIZED PRURITUS",
    "AELLTCD": "",
    "AEDECOD": "PRURITUS GENERALISED",
    "AEPTCD": "",
    "AEHLT": "HLT_0123",
    "AEHLTCD": "",
    "AEHLGT": "HLGT_0689",
    "AEHLGTCD": "",
    "AEBODSYS": "SKIN AND SUBCUTANEOUS TISSUE DISORDERS",
    "AEBDSYCD": "",
    "AESOC": "SKIN AND SUBCUTANEOUS TISSUE DISORDERS",
    "AESOCCD": "",
    "AESEV": "MODERATE",
    "AESER": "N",
    "AEACN": "",
    "AEREL": "POSSIBLE",
    "AEOUT": "RECOVERED/RESOLVED",
    "AESCAN": "N",
    "AESCONG": "N",
    "AESDISAB": "N",
    "AESDTH": "N",
    "AESHOSP": "N",
    "AESLIFE": "N",
    "AESOD": "N",
    "AEDTC": "2014-04-23",
    "AESTDTC": "2014-03-31",
    "AEENDTC": "2014-03-31",
    "AESTDY": 90.0,
    "AEENDY": 90.0
  },
  {
    "STUDYID": "CDISCPILOT01",
    "DOMAIN": "AE",
    "USUBJID": "01-701-1097",
    "AESEQ": 7.0,
    "AESPID": "E09",
    "AETERM": "PRURITUS GENERALISED",
    "AELLT": "GENERALIZED PRURITUS",
    "AELLTCD": "",
    "AEDECOD": "PRURITUS GENERALISED",
    "AEPTCD": "",
    "AEHLT": "HLT_0123",
    "AEHLTCD": "",
    "AEHLGT": "HLGT_0689",
    "AEHLGTCD": "",
    "AEBODSYS": "SKIN AND SUBCUTANEOUS TISSUE DISORDERS",
    "AEBDSYCD": "",
    "AESOC": "SKIN AND SUBCUTANEOUS TISSUE DISORDERS",
    "AESOCCD": "",
    "AESEV": "MODERATE",
    "AESER": "N",
    "AEACN": "",
    "AEREL": "POSSIBLE",
    "AEOUT": "RECOVERED/RESOLVED",
    "AESCAN": "N",
    "AESCONG": "N",
    "AESDISAB": "N",
    "AESDTH": "N",
    "AESHOSP": "N",
    "AESLIFE": "N",
    "AESOD": "N",
    "AEDTC": "2014-04-23",
    "AESTDTC": "2014-04-19",
    "AEENDTC": "2014-04-20",
    "AESTDY": 109.0,
    "AEENDY": 110.0
  },
  {
    "STUDYID": "CDISCPILOT01",
    "DOMAIN": "AE",
    "USUBJID": "01-701-1111",
    "AESEQ": 7.0,
    "AESPID": "E16",
    "AETERM": "ARTHRALGIA",
    "AELLT": "GENERALIZED JOINT PAIN",
    "AELLTCD": "",
    "AEDECOD": "ARTHRALGIA",
    "AEPTCD": "",
    "AEHLT": "HLT_0375",
    "AEHLTCD": "",
    "AEHLGT": "HLGT_0610",
    "AEHLGTCD": "",
    "AEBODSYS": "MUSCULOSKELETAL AND CONNECTIVE TISSUE DISORDERS",
    "AEBDSYCD": "",
    "AESOC": "MUSCULOSKELETAL AND CONNECTIVE TISSUE DISORDERS",
    "AESOCCD": "",
    "AESEV": "MODERATE",
    "AESER": "N",
    "AEACN": "",
    "AEREL": "NONE",
    "AEOUT": "NOT RECOVERED/NOT RESOLVED",
    "AESCAN": "N",
    "AESCONG": "N",
    "AESDISAB": "N",
    "AESDTH": "N",
    "AESHOSP": "N",
    "AESLIFE": "N",
    "AESOD": "N",
    "AEDTC": "2012-09-17",
    "AESTDTC": "2012-09-13",
    "AEENDTC": "",
    "AESTDY": 7.0,
    "AEENDY": ""
  },
  {
    "STUDYID": "CDISCPILOT01",
    "DOMAIN": "AE",
    "USUBJID": "01-701-1111",
    "AESEQ": 8.0,
    "AESPID": "E17",
    "AETERM": "CELLULITIS",
    "AELLT": "CELLULITIS OF LEG",
    "AELLTCD": "",
    "AEDECOD": "CELLULITIS",
    "AEPTCD": "",
    "AEHLT": "HLT_0613",
    "AEHLTCD": "",
    "AEHLGT": "HLGT_0066",
    "AEHLGTCD": "",
    "AEBODSYS": "INFECTIONS AND INFESTATIONS",
    "AEBDSYCD": "",
    "AESOC": "INFECTIONS AND INFESTATIONS",
    "AESOCCD": "",
    "AESEV": "MODERATE",
    "AESER": "N",
    "AEACN": "",
    "AEREL": "NONE",
    "AEOUT": "NOT RECOVERED/NOT RESOLVED",
    "AESCAN": "N",
    "AESCONG": "N",
    "AESDISAB": "N",
    "AESDTH": "N",
    "AESHOSP": "N",
    "AESLIFE": "N",
    "AESOD": "N",
    "AEDTC": "2012-09-17",
    "AESTDTC": "2012-09-13",
    "AEENDTC": "",
    "AESTDY": 7.0,
    "AEENDY": ""
  },
  {
    "STUDYID": "CDISCPILOT01",
    "DOMAIN": "AE",
    "USUBJID": "01-701-1111",
    "AESEQ": 1.0,
    "AESPID": "E14",
    "AETERM": "ERYTHEMA",
    "AELLT": "ERYTHEMA",
    "AELLTCD": "",
    "AEDECOD": "ERYTHEMA",
    "AEPTCD": "",
    "AEHLT": "HLT_0284",
    "AEHLTCD": "",
    "AEHLGT": "HLGT_0192",
    "AEHLGTCD": "",
    "AEBODSYS": "SKIN AND SUBCUTANEOUS TISSUE DISORDERS",
    "AEBDSYCD": "",
    "AESOC": "SKIN AND SUBCUTANEOUS TISSUE DISORDERS",
    "AESOCCD": "",
    "AESEV": "MILD",
    "AESER": "N",
    "AEACN": "",
    "AEREL": "NONE",
    "AEOUT": "NOT RECOVERED/NOT RESOLVED",
    "AESCAN": "N",
    "AESCONG": "N",
    "AESDISAB": "N",
    "AESDTH": "N",
    "AESHOSP": "N",
    "AESLIFE": "N",
    "AESOD": "N",
    "AEDTC": "2012-09-05",
    "AESTDTC": "2012-09-02",
    "AEENDTC": "2012-09-07",
    "AESTDY": -5.0,
    "AEENDY": 1.0
  },
  {
    "STUDYID": "CDISCPILOT01",
    "DOMAIN": "AE",
    "USUBJID": "01-701-1111",
    "AESEQ": 4.0,
    "AESPID": "E14",
    "AETERM": "ERYTHEMA",
    "AELLT": "ERYTHEMA",
    "AELLTCD": "",
    "AEDECOD": "ERYTHEMA",
    "AEPTCD": "",
    "AEHLT": "HLT_0284",
    "AEHLTCD": "",
    "AEHLGT": "HLGT_0192",
    "AEHLGTCD": "",
    "AEBODSYS": "SKIN AND SUBCUTANEOUS TISSUE DISORDERS",
    "AEBDSYCD": "",
    "AESOC": "SKIN AND SUBCUTANEOUS TISSUE DISORDERS",
    "AESOCCD": "",
    "AESEV": "MILD",
    "AESER": "N",
    "AEACN": "",
    "AEREL": "NONE",
    "AEOUT": "RECOVERED/RESOLVED",
    "AESCAN": "N",
    "AESCONG": "N",
    "AESDISAB": "N",
    "AESDTH": "N",
    "AESHOSP": "N",
    "AESLIFE": "N",
    "AESOD": "N",
    "AEDTC": "2012-09-17",
    "AESTDTC": "2012-09-02",
    "AEENDTC": "2012-09-07",
    "AESTDY": -5.0,
    "AEENDY": 1.0
  },
  {
    "STUDYID": "CDISCPILOT01",
    "DOMAIN": "AE",
    "USUBJID": "01-701-1111",
    "AESEQ": 3.0,
    "AESPID": "E06",
    "AETERM": "LOCALISED INFECTION",
    "AELLT": "LOCALIZED INFECTION",
    "AELLTCD": "",
    "AEDECOD": "LOCALISED INFECTION",
    "AEPTCD": "",
    "AEHLT": "HLT_0435",
    "AEHLTCD": "",
    "AEHLGT": "HLGT_0557",
    "AEHLGTCD": "",
    "AEBODSYS": "INFECTIONS AND INFESTATIONS",
    "AEBDSYCD": "",
    "AESOC": "INFECTIONS AND INFESTATIONS",
    "AESOCCD": "",
    "AESEV": "MODERATE",
    "AESER": "N",
    "AEACN": "",
    "AEREL": "NONE",
    "AEOUT": "NOT RECOVERED/NOT RESOLVED",
    "AESCAN": "N",
    "AESCONG": "N",
    "AESDISAB": "N",
    "AESDTH": "N",
    "AESHOSP": "N",
    "AESLIFE": "N",
    "AESOD": "N",
    "AEDTC": "2012-09-17",
    "AESTDTC": "2012-07-08",
    "AEENDTC": "",
    "AESTDY": -61.0,
    "AEENDY": ""
  },
  {
    "STUDYID": "CDISCPILOT01",
    "DOMAIN": "AE",
    "USUBJID": "01-701-1111",
    "AESEQ": 6.0,
    "AESPID": "E18",
    "AETERM": "MICTURITION URGENCY",
    "AELLT": "URINARY URGENCY",
    "AELLTCD": "",
    "AEDECOD": "MICTURITION URGENCY",
    "AEPTCD": "",
    "AEHLT": "HLT_0294",
    "AEHLTCD": "",
    "AEHLGT": "HLGT_0483",
    "AEHLGTCD": "",
    "AEBODSYS": "RENAL AND URINARY DISORDERS",
    "AEBDSYCD": "",
    "AESOC": "RENAL AND URINARY DISORDERS",
    "AESOCCD": "",
    "AESEV": "MILD",
    "AESER": "N",
    "AEACN": "",
    "AEREL": "NONE",
    "AEOUT": "NOT RECOVERED/NOT RESOLVED",
    "AESCAN": "N",
    "AESCONG": "N",
    "AESDISAB": "N",
    "AESDTH": "N",
    "AESHOSP": "N",
    "AESLIFE": "N",
    "AESOD": "N",
    "AEDTC": "2012-09-17",
    "AESTDTC": "2012-09-07",
    "AEENDTC": "",
    "AESTDY": 1.0,
    "AEENDY": ""
  },
  {
    "STUDYID": "CDISCPILOT01",
    "DOMAIN": "AE",
    "USUBJID": "01-701-1111",
    "AESEQ": 2.0,
    "AESPID": "E15",
    "AETERM": "PRURITUS",
    "AELLT": "ITCHING",
    "AELLTCD": "",
    "AEDECOD": "PRURITUS",
    "AEPTCD": "",
    "AEHLT": "HLT_0778",
    "AEHLTCD": "",
    "AEHLGT": "HLGT_0695",
    "AEHLGTCD": "",
    "AEBODSYS": "SKIN AND SUBCUTANEOUS TISSUE DISORDERS",
    "AEBDSYCD": "",
    "AESOC": "SKIN AND SUBCUTANEOUS TISSUE DISORDERS",
    "AESOCCD": "",
    "AESEV": "MILD",
    "AESER": "N",
    "AEACN": "",
    "AEREL": "NONE",
    "AEOUT": "NOT RECOVERED/NOT RESOLVED",
    "AESCAN": "N",
    "AESCONG": "N",
    "AESDISAB": "N",
    "AESDTH": "N",
    "AESHOSP": "N",
    "AESLIFE": "N",
    "AESOD": "N",
    "AEDTC": "2012-09-05",
    "AESTDTC": "2012-09-02",
    "AEENDTC": "2012-09-07",
    "AESTDY": -5.0,
    "AEENDY": 1.0
  },
  {
    "STUDYID": "CDISCPILOT01",
    "DOMAIN": "AE",
    "USUBJID": "01-701-1111",
    "AESEQ": 5.0,
    "AESPID": "E15",
    "AETERM": "PRURITUS",
    "AELLT": "ITCHING",
    "AELLTCD": "",
    "AEDECOD": "PRURITUS",
    "AEPTCD": "",
    "AEHLT": "HLT_0778",
    "AEHLTCD": "",
    "AEHLGT": "HLGT_0695",
    "AEHLGTCD": "",
    "AEBODSYS": "SKIN AND SUBCUTANEOUS TISSUE DISORDERS",
    "AEBDSYCD": "",
    "AESOC": "SKIN AND SUBCUTANEOUS TISSUE DISORDERS",
    "AESOCCD": "",
    "AESEV": "MILD",
    "AESER": "N",
    "AEACN": "",
    "AEREL": "NONE",
    "AEOUT": "RECOVERED/RESOLVED",
    "AESCAN": "N",
    "AESCONG": "N",
    "AESDISAB": "N",
    "AESDTH": "N",
    "AESHOSP": "N",
    "AESLIFE": "N",
    "AESOD": "N",
    "AEDTC": "2012-09-17",
    "AESTDTC": "2012-09-02",
    "AEENDTC": "2012-09-07",
    "AESTDY": -5.0,
    "AEENDY": 1.0
  },
  {
    "STUDYID": "CDISCPILOT01",
    "DOMAIN": "AE",
    "USUBJID": "01-701-1115",
    "AESEQ": 9.0,
    "AESPID": "E14",
    "AETERM": "APPLICATION SITE DERMATITIS",
    "AELLT": "APPLICATION SITE RASH",
    "AELLTCD": "",
    "AEDECOD": "APPLICATION SITE DERMATITIS",
    "AEPTCD": "",
    "AEHLT": "HLT_0343",
    "AEHLTCD": "",
    "AEHLGT": "HLGT_0241",
    "AEHLGTCD": "",
    "AEBODSYS": "GENERAL DISORDERS AND ADMINISTRATION SITE CONDITIONS",
    "AEBDSYCD": "",
    "AESOC": "GENERAL DISORDERS AND ADMINISTRATION SITE CONDITIONS",
    "AESOCCD": "",
    "AESEV": "MODERATE",
    "AESER": "N",
    "AEACN": "",
    "AEREL": "PROBABLE",
    "AEOUT": "NOT RECOVERED/NOT RESOLVED",
    "AESCAN": "N",
    "AESCONG": "N",
    "AESDISAB": "N",
    "AESDTH": "N",
    "AESHOSP": "N",
    "AESLIFE": "N",
    "AESOD": "N",
    "AEDTC": "2013-01-23",
    "AESTDTC": "2013-01-19",
    "AEENDTC": "",
    "AESTDY": 51.0,
    "AEENDY": ""
  },
  {
    "STUDYID": "CDISCPILOT01",
    "DOMAIN": "AE",
    "USUBJID": "01-701-1115",
    "AESEQ": 1.0,
    "AESPID": "E09",
    "AETERM": "APPLICATION SITE ERYTHEMA",
    "AELLT": "APPLICATION SITE REDNESS",
    "AELLTCD": "",
    "AEDECOD": "APPLICATION SITE ERYTHEMA",
    "AEPTCD": "",
    "AEHLT": "HLT_0617",
    "AEHLTCD": "",
    "AEHLGT": "HLGT_0152",
    "AEHLGTCD": "",
    "AEBODSYS": "GENERAL DISORDERS AND ADMINISTRATION SITE CONDITIONS",
    "AEBDSYCD": "",
    "AESOC": "GENERAL DISORDERS AND ADMINISTRATION SITE CONDITIONS",
    "AESOCCD": "",
    "AESEV": "MILD",
    "AESER": "N",
    "AEACN": "",
    "AEREL": "PROBABLE",
    "AEOUT": "NOT RECOVERED/NOT RESOLVED",
    "AESCAN": "N",
    "AESCONG": "N",
    "AESDISAB": "N",
    "AESDTH": "N",
    "AESHOSP": "N",
    "AESLIFE": "N",
    "AESOD": "N",
    "AEDTC": "2012-12-13",
    "AESTDTC": "2012-12-02",
    "AEENDTC": "",
    "AESTDY": 3.0,
    "AEENDY": ""
  },
  {
    "STUDYID": "CDISCPILOT01",
    "DOMAIN": "AE",
    "USUBJID": "01-701-1115",
    "AESEQ": 5.0,
    "AESPID": "E09",
    "AETERM": "APPLICATION SITE ERYTHEMA",
    "AELLT": "APPLICATION SITE REDNESS",
    "AELLTCD": "",
    "AEDECOD": "APPLICATION SITE ERYTHEMA",
    "AEPTCD": "",
    "AEHLT": "HLT_0617",
    "AEHLTCD": "",
    "AEHLGT": "HLGT_0152",
    "AEHLGTCD": "",
    "AEBODSYS": "GENERAL DISORDERS AND ADMINISTRATION SITE CONDITIONS",
    "AEBDSYCD": "",
    "AESOC": "GENERAL DISORDERS AND ADMINISTRATION SITE CONDITIONS",
    "AESOCCD": "",
    "AESEV": "MODERATE",
    "AESER": "N",
    "AEACN": "",
    "AEREL": "PROBABLE",
    "AEOUT": "NOT RECOVERED/NOT RESOLVED",
    "AESCAN": "N",
    "AESCONG": "N",
    "AESDISAB": "N",
    "AESDTH": "N",
    "AESHOSP": "N",
    "AESLIFE": "N",
    "AESOD": "N",
    "AEDTC": "2013-01-23",
    "AESTDTC": "2012-12-02",
    "AEENDTC": "",
    "AESTDY": 3.0,
    "AEENDY": ""
  },
  {
    "STUDYID": "CDISCPILOT01",
    "DOMAIN": "AE",
    "USUBJID": "01-701-1115",
    "AESEQ": 3.0,
    "AESPID": "E10",
    "AETERM": "APPLICATION SITE IRRITATION",
    "AELLT": "APPLICATION SITE BURNING",
    "AELLTCD": "",
    "AEDECOD": "APPLICATION SITE IRRITATION",
    "AEPTCD": "",
    "AEHLT": "HLT_0061",
    "AEHLTCD": "",
    "AEHLGT": "HLGT_0346",
    "AEHLGTCD": "",
    "AEBODSYS": "GENERAL DISORDERS AND ADMINISTRATION SITE CONDITIONS",
    "AEBDSYCD": "",
    "AESOC": "GENERAL DISORDERS AND ADMINISTRATION SITE CONDITIONS",
    "AESOCCD": "",
    "AESEV": "MILD",
    "AESER": "N",
    "AEACN": "",
    "AEREL": "POSSIBLE",
    "AEOUT": "NOT RECOVERED/NOT RESOLVED",
    "AESCAN": "N",
    "AESCONG": "N",
    "AESDISAB": "N",
    "AESDTH": "N",
    "AESHOSP": "N",
    "AESLIFE": "N",
    "AESOD": "N",
    "AEDTC": "2012-12-26",
    "AESTDTC": "2012-12-26",
    "AEENDTC": "2012-12-26",
    "AESTDY": 27.0,
    "AEENDY": 27.0
  },
  {
    "STUDYID": "CDISCPILOT01",
    "DOMAIN": "AE",
    "USUBJID": "01-701-1115",
    "AESEQ": 4.0,
    "AESPID": "E10",
    "AETERM": "APPLICATION SITE IRRITATION",
    "AELLT": "APPLICATION SITE BURNING",
    "AELLTCD": "",
    "AEDECOD": "APPLICATION SITE IRRITATION",
    "AEPTCD": "",
    "AEHLT": "HLT_0061",
    "AEHLTCD": "",
    "AEHLGT": "HLGT_0346",
    "AEHLGTCD": "",
    "AEBODSYS": "GENERAL DISORDERS AND ADMINISTRATION SITE CONDITIONS",
    "AEBDSYCD": "",
    "AESOC": "GENERAL DISORDERS AND ADMINISTRATION SITE CONDITIONS",
    "AESOCCD": "",
    "AESEV": "MILD",
    "AESER": "N",
    "AEACN": "",
    "AEREL": "POSSIBLE",
    "AEOUT": "RECOVERED/RESOLVED",
    "AESCAN": "N",
    "AESCONG": "N",
    "AESDISAB": "N",
    "AESDTH": "N",
    "AESHOSP": "N",
    "AESLIFE": "N",
    "AESOD": "N",
    "AEDTC": "2012-12-28",
    "AESTDTC": "2012-12-26",
    "AEENDTC": "2012-12-26",
    "AESTDY": 27.0,
    "AEENDY": 27.0
  },
  {
    "STUDYID": "CDISCPILOT01",
    "DOMAIN": "AE",
    "USUBJID": "01-701-1115",
    "AESEQ": 8.0,
    "AESPID": "E12",
    "AETERM": "APPLICATION SITE IRRITATION",
    "AELLT": "APPLICATION SITE BURNING",
    "AELLTCD": "",
    "AEDECOD": "APPLICATION SITE IRRITATION",
    "AEPTCD": "",
    "AEHLT": "HLT_0061",
    "AEHLTCD": "",
    "AEHLGT": "HLGT_0346",
    "AEHLGTCD": "",
    "AEBODSYS": "GENERAL DISORDERS AND ADMINISTRATION SITE CONDITIONS",
    "AEBDSYCD": "",
    "AESOC": "GENERAL DISORDERS AND ADMINISTRATION SITE CONDITIONS",
    "AESOCCD": "",
    "AESEV": "MODERATE",
    "AESER": "N",
    "AEACN": "",
    "AEREL": "PROBABLE",
    "AEOUT": "NOT RECOVERED/NOT RESOLVED",
    "AESCAN": "N",
    "AESCONG": "N",
    "AESDISAB": "N",
    "AESDTH": "N",
    "AESHOSP": "N",
    "AESLIFE": "N",
    "AESOD": "N",
    "AEDTC": "2013-01-23",
    "AESTDTC": "2013-01-19",
    "AEENDTC": "",
    "AESTDY": 51.0,
    "AEENDY": ""
  },
  {
    "STUDYID": "CDISCPILOT01",
    "DOMAIN": "AE",
    "USUBJID": "01-701-1115",
    "AESEQ": 2.0,
    "AESPID": "E11",
    "AETERM": "APPLICATION SITE PRURITUS",
    "AELLT": "APPLICATION SITE ITCHING",
    "AELLTCD": "",
    "AEDECOD": "APPLICATION SITE PRURITUS",
    "AEPTCD": "",
    "AEHLT": "HLT_0317",
    "AEHLTCD": "",
    "AEHLGT": "HLGT_0338",
    "AEHLGTCD": "",
    "AEBODSYS": "GENERAL DISORDERS AND ADMINISTRATION SITE CONDITIONS",
    "AEBDSYCD": "",
    "AESOC": "GENERAL DISORDERS AND ADMINISTRATION SITE CONDITIONS",
    "AESOCCD": "",
    "AESEV": "MILD",
    "AESER": "N",
    "AEACN": "",
    "AEREL": "PROBABLE",
    "AEOUT": "NOT RECOVERED/NOT RESOLVED",
    "AESCAN": "N",
    "AESCONG": "N",
    "AESDISAB": "N",
    "AESDTH": "N",
    "AESHOSP": "N",
    "AESLIFE": "N",
    "AESOD": "N",
    "AEDTC": "2012-12-13",
    "AESTDTC": "2012-12-02",
    "AEENDTC": "",
    "AESTDY": 3.0,
    "AEENDY": ""
  },
  {
    "STUDYID": "CDISCPILOT01",
    "DOMAIN": "AE",
    "USUBJID": "01-701-1115",
    "AESEQ": 6.0,
    "AESPID": "E11",
    "AETERM": "APPLICATION SITE PRURITUS",
    "AELLT": "APPLICATION SITE ITCHING",
    "AELLTCD": "",
    "AEDECOD": "APPLICATION SITE PRURITUS",
    "AEPTCD": "",
    "AEHLT": "HLT_0317",
    "AEHLTCD": "",
    "AEHLGT": "HLGT_0338",
    "AEHLGTCD": "",
    "AEBODSYS": "GENERAL DISORDERS AND ADMINISTRATION SITE CONDITIONS",
    "AEBDSYCD": "",
    "AESOC": "GENERAL DISORDERS AND ADMINISTRATION SITE CONDITIONS",
    "AESOCCD": "",
    "AESEV": "MODERATE",
    "AESER": "N",
    "AEACN": "",
    "AEREL": "PROBABLE",
    "AEOUT": "NOT RECOVERED/NOT RESOLVED",
    "AESCAN": "N",
    "AESCONG": "N",
    "AESDISAB": "N",
    "AESDTH": "N",
    "AESHOSP": "N",
    "AESLIFE": "N",
    "AESOD": "N",
    "AEDTC": "2013-01-23",
    "AESTDTC": "2012-12-02",
    "AEENDTC": "",
    "AESTDY": 3.0,
    "AEENDY": ""
  },
  {
    "STUDYID": "CDISCPILOT01",
    "DOMAIN": "AE",
    "USUBJID": "01-701-1115",
    "AESEQ": 7.0,
    "AESPID": "E13",
    "AETERM": "FATIGUE",
    "AELLT": "FATIGUE",
    "AELLTCD": "",
    "AEDECOD": "FATIGUE",
    "AEPTCD": "",
    "AEHLT": "HLT_0043",
    "AEHLTCD": "",
    "AEHLGT": "HLGT_0181",
    "AEHLGTCD": "",
    "AEBODSYS": "GENERAL DISORDERS AND ADMINISTRATION SITE CONDITIONS",
    "AEBDSYCD": "",
    "AESOC": "GENERAL DISORDERS AND ADMINISTRATION SITE CONDITIONS",
    "AESOCCD": "",
    "AESEV": "MODERATE",
    "AESER": "N",
    "AEACN": "",
    "AEREL": "REMOTE",
    "AEOUT": "NOT RECOVERED/NOT RESOLVED",
    "AESCAN": "N",
    "AESCONG": "N",
    "AESDISAB": "N",
    "AESDTH": "N",
    "AESHOSP": "N",
    "AESLIFE": "N",
    "AESOD": "N",
    "AEDTC": "2013-01-23",
    "AESTDTC": "2013-01-14",
    "AEENDTC": "",
    "AESTDY": 46.0,
    "AEENDY": ""
  }
]