[
  {
    "STUDYID": "CDISCPILOT01",
    "DOMAIN": "DS",
    "USUBJID": "01-701-1015",
    "DSSEQ": 1.0,
    "DSSPID": "",
    "DSTERM": "PROTOCOL COMPLETED",
    "DSDECOD": "COMPLETED",
    "DSCAT": "DISPOSITION EVENT",
    "VISITNUM": 13.0,
    "VISIT": "WEEK 26",
    "DSDTC": "2014-07-02",
    "DSSTDTC": "2014-07-02",
    "DSSTDY": 182.0
  },
  {
    "STUDYID": "CDISCPILOT01",
    "DOMAIN": "DS",
    "USUBJID": "01-701-1015",
    "DSSEQ": 2.0,
    "DSSPID": "",
    "DSTERM": "FINAL LAB VISIT",
    "DSDECOD": "FINAL LAB VISIT",
    "DSCAT": "OTHER EVENT",
    "VISITNUM": 13.0,
    "VISIT": "WEEK 26",
    "DSDTC": "2014-07-02T11:45",
    "DSSTDTC": "2014-07-02",
    "DSSTDY": 182.0
  },
  {
    "STUDYID": "CDISCPILOT01",
    "DOMAIN": "DS",
    "USUBJID": "01-701-1023",
    "DSSEQ": 1.0,
    "DSSPID": "24",
    "DSTERM": "ADVERSE EVENT",
    "DSDECOD": "ADVERSE EVENT",
    "DSCAT": "DISPOSITION EVENT",
    "VISITNUM": 5.0,
    "VISIT": "WEEK 4",
    "DSDTC": "2012-09-02",
    "DSSTDTC": "2012-09-02",
    "DSSTDY": 29.0
  },
  {
    "STUDYID": "CDISCPILOT01",
    "DOMAIN": "DS",
    "USUBJID": "01-701-1023",
    "DSSEQ": 2.0,
    "DSSPID": "",
    "DSTERM": "FINAL LAB VISIT",
    "DSDECOD": "FINAL LAB VISIT",
    "DSCAT": "OTHER EVENT",
    "VISITNUM": 5.0,
    "VISIT": "WEEK 4",
    "DSDTC": "2012-09-02T10:15",
    "DSSTDTC": "2012-09-02",
    "DSSTDY": 29.0
  },
  {
    "STUDYID": "CDISCPILOT01",
    "DOMAIN": "DS",
    "USUBJID": "01-701-1023",
    "DSSEQ": 3.0,
    "DSSPID": "",
    "DSTERM": "FINAL RETRIEVAL VISIT",
    "DSDECOD": "FINAL RETRIEVAL VISIT",
    "DSCAT": "OTHER EVENT",
    "VISITNUM": 201.0,
    "VISIT": "RETRIEVAL",
    "DSDTC": "2013-02-18",
    "DSSTDTC": "2013-02-18",
    "DSSTDY": 198.0
  },
  {
    "STUDYID": "CDISCPILOT01",
    "DOMAIN": "DS",
    "USUBJID": "01-701-1028",
    "DSSEQ": 1.0,
    "DSSPID": "",
    "DSTERM": "PROTOCOL COMPLETED",
    "DSDECOD": "COMPLETED",
    "DSCAT": "DISPOSITION EVENT",
    "VISITNUM": 13.0,
    "VISIT": "WEEK 26",
    "DSDTC": "2014-01-14",
    "DSSTDTC": "2014-01-14",
    "DSSTDY": 180.0
  },
  {
    "STUDYID": "CDISCPILOT01",
    "DOMAIN": "DS",
    "USUBJID": "01-701-1028",
    "DSSEQ": 2.0,
    "DSSPID": "",
    "DSTERM": "FINAL LAB VISIT",
    "DSDECOD": "FINAL LAB VISIT",
    "DSCAT": "OTHER EVENT",
    "VISITNUM": 13.0,
    "VISIT": "WEEK 26",
    "DSDTC": "2014-01-14T11:10",
    "DSSTDTC": "2014-01-14",
    "DSSTDY": 180.0
  },
  {
    "STUDYID": "CDISCPILOT01",
    "DOMAIN": "DS",
    "USUBJID": "01-701-1033",
    "DSSEQ": 1.0,
    "DSSPID": "",
    "DSTERM": "SPONSOR DECISION (STUDY OR PATIENT DISCONTINUED BY THE SPONSOR)",
    "DSDECOD": "STUDY TERMINATED BY SPONSOR",
    "DSCAT": "DISPOSITION EVENT",
    "VISITNUM": 5.0,
    "VISIT": "WEEK 4",
    "DSDTC": "2014-04-14",
    "DSSTDTC": "2014-04-14",
    "DSSTDY": 28.0
  },
  {
    "STUDYID": "CDISCPILOT01",
    "DOMAIN": "DS",
    "USUBJID": "01-701-1033",
    "DSSEQ": 2.0,
    "DSSPID": "",
    "DSTERM": "FINAL LAB VISIT",
    "DSDECOD": "FINAL LAB VISIT",
    "DSCAT": "OTHER EVENT",
    "VISITNUM": 5.0,
    "VISIT": "WEEK 4",
    "DSDTC": "2014-04-14T10:38",
    "DSSTDTC": "2014-04-14",
    "DSSTDY": 28.0
  },
  {
    "STUDYID": "CDISCPILOT01",
    "DOMAIN": "DS",
    "USUBJID": "01-701-1033",
    "DSSEQ": 3.0,
    "DSSPID": "",
    "DSTERM": "FINAL RETRIEVAL VISIT",
    "DSDECOD": "FINAL RETRIEVAL VISIT",
    "DSCAT": "OTHER EVENT",
    "VISITNUM": 201.0,
    "VISIT": "RETRIEVAL",
    "DSDTC": "2014-09-15",
    "DSSTDTC": "2014-09-15",
    "DSSTDY": 182.0
  },
  {
    "STUDYID": "CDISCPILOT01",
    "DOMAIN": "DS",
    "USUBJID": "01-701-1034",
    "DSSEQ": 1.0,
    "DSSPID": "",
    "DSTERM": "PROTOCOL COMPLETED",
    "DSDECOD": "COMPLETED",
    "DSCAT": "DISPOSITION EVENT",
    "VISITNUM": 13.0,
    "VISIT": "WEEK 26",
    "DSDTC": "2014-12-30",
    "DSSTDTC": "2014-12-30",
    "DSSTDY": 183.0
  },
  {
    "STUDYID": "CDISCPILOT01",
    "DOMAIN": "DS",
    "USUBJID": "01-701-1034",
    "DSSEQ": 2.0,
    "DSSPID": "",
    "DSTERM": "FINAL LAB VISIT",
    "DSDECOD": "FINAL LAB VISIT",
    "DSCAT": "OTHER EVENT",
    "VISITNUM": 13.0,
    "VISIT": "WEEK 26",
    "DSDTC": "2014-12-30T09:50",
    "DSSTDTC": "2014-12-30",
    "DSSTDY": 183.0
  },
  {
    "STUDYID": "CDISCPILOT01",
    "DOMAIN": "DS",
    "USUBJID": "01-701-1047",
    "DSSEQ": 1.0,
    "DSSPID": "17",
    "DSTERM": "ADVERSE EVENT",
    "DSDECOD": "ADVERSE EVENT",
    "DSCAT": "DISPOSITION EVENT",
    "VISITNUM": 6.0,
    "VISIT": "AMBUL ECG REMOVAL",
    "DSDTC": "2013-03-29",
    "DSSTDTC": "2013-03-29",
    "DSSTDY": 46.0
  },
  {
    "STUDYID": "CDISCPILOT01",
    "DOMAIN": "DS",
    "USUBJID": "01-701-1047",
    "DSSEQ": 2.0,
    "DSSPID": "",
    "DSTERM": "FINAL LAB VISIT",
    "DSDECOD": "FINAL LAB VISIT",
    "DSCAT": "OTHER EVENT",
    "VISITNUM": 6.1,
    "VISIT": "UNSCHEDULED 6.1",
    "DSDTC": "2013-04-07T11:20",
    "DSSTDTC": "2013-04-07",
    "DSSTDY": 55.0
  },
  {
    "STUDYID": "CDISCPILOT01",
    "DOMAIN": "DS",
    "USUBJID": "01-701-1047",
    "DSSEQ": 3.0,
    "DSSPID": "",
    "DSTERM": "FINAL RETRIEVAL VISIT",
    "DSDECOD": "FINAL RETRIEVAL VISIT",
    "DSCAT": "OTHER EVENT",
    "VISITNUM": 201.0,
    "VISIT": "RETRIEVAL",
    "DSDTC": "2013-07-28",
    "DSSTDTC": "2013-07-28",
    "DSSTDY": 167.0
  },
  {
    "STUDYID": "CDISCPILOT01",
    "DOMAIN": "DS",
    "USUBJID": "01-701-1057",
    "DSSEQ": 1.0,
    "DSSPID": "",
    "DSTERM": "SCREEN FAILURE",
    "DSDECOD": "SCREEN FAILURE",
    "DSCAT": "DISPOSITION EVENT",
    "VISITNUM": 1.0,
    "VISIT": "SCREENING 1",
    "DSDTC": "2013-12-20",
    "DSSTDTC": "2013-12-20",
    "DSSTDY": ""
  },
  {
    "STUDYID": "CDISCPILOT01",
    "DOMAIN": "DS",
    "USUBJID": "01-701-1097",
    "DSSEQ": 1.0,
    "DSSPID": "",
    "DSTERM": "PROTOCOL COMPLETED",
    "DSDECOD": "COMPLETED",
    "DSCAT": "DISPOSITION EVENT",
    "VISITNUM": 13.0,
    "VISIT": "WEEK 26",
    "DSDTC": "2014-07-09",
    "DSSTDTC": "2014-07-09",
    "DSSTDY": 190.0
  },
  {
    "STUDYID": "CDISCPILOT01",
    "DOMAIN": "DS",
    "USUBJID": "01-701-1097",
    "DSSEQ": 2.0,
    "DSSPID": "",
    "DSTERM": "FINAL LAB VISIT",
    "DSDECOD": "FINAL LAB VISIT",
    "DSCAT": "OTHER EVENT",
    "VISITNUM": 13.0,
    "VISIT": "WEEK 26",
    "DSDTC": "2014-07-09T09:39",
    "DSSTDTC": "2014-07-09",
    "DSSTDY": 190.0
  },
  {
    "STUDYID": "CDISCPILOT01",
    "DOMAIN": "DS",
    "USUBJID": "01-701-1111",
    "DSSEQ": 1.0,
    "DSSPID": "32",
    "DSTERM": "ADVERSE EVENT",
    "DSDECOD": "ADVERSE EVENT",
    "DSCAT": "DISPOSITION EVENT",
    "VISITNUM": 4.0,
    "VISIT": "WEEK 2",
    "DSDTC": "2012-09-17",
    "DSSTDTC": "2012-09-17",
    "DSSTDY": 11.0
  },
  {
    "STUDYID": "CDISCPILOT01",
    "DOMAIN": "DS",
    "USUBJID": "01-701-1111",
    "DSSEQ": 2.0,
    "DSSPID": "",
    "DSTERM": "FINAL LAB VISIT",
    "DSDECOD": "FINAL LAB VISIT",
    "DSCAT": "OTHER EVENT",
    "VISITNUM": 4.0,
    "VISIT": "WEEK 2",
    "DSDTC": "2012-09-17T11:48",
    "DSSTDTC": "2012-09-17",
    "DSSTDY": 11.0
  },
  {
    "STUDYID": "CDISCPILOT01",
    "DOMAIN": "DS",
    "USUBJID": "01-701-1111",
    "DSSEQ": 3.0,
    "DSSPID": "",
    "DSTERM": "FINAL RETRIEVAL VISIT",
    "DSDECOD": "FINAL RETRIEVAL VISIT",
    "DSCAT": "OTHER EVENT",
    "VISITNUM": 201.0,
    "VISIT": "RETRIEVAL",
    "DSDTC": "2013-02-22",
    "DSSTDTC": "2013-02-22",
    "DSSTDY": 169.0
  },
  {
    "STUDYID": "CDISCPILOT01",
    "DOMAIN": "DS",
    "USUBJID": "01-701-1115",
    "DSSEQ": 1.0,
    "DSSPID": "18",
    "DSTERM": "ADVERSE EVENT",
    "DSDECOD": "ADVERSE EVENT",
    "DSCAT": "DISPOSITION EVENT",
    "VISITNUM": 8.0,
    "VISIT": "WEEK 8",
    "DSDTC": "2013-01-23",
    "DSSTDTC": "2013-01-23",
    "DSSTDY": 55.0
  },
  {
    "STUDYID": "CDISCPILOT01",
    "DOMAIN": "DS",
    "USUBJID": "01-701-1115",
    "DSSEQ": 2.0,
    "DSSPID": "",
    "DSTERM": "FINAL LAB VISIT",
    "DSDECOD": "FINAL LAB VISIT",
    "DSCAT": "OTHER EVENT",
    "VISITNUM": 8.0,
    "VISIT": "WEEK 8",
    "DSDTC": "2013-01-23T12:13",
    "DSSTDTC": "2013-01-23",
    "DSSTDY": 55.0
  },
  {
    "STUDYID": "CDISCPILOT01",
    "DOMAIN": "DS",
    "USUBJID": "01-701-1115",
    "DSSEQ": 3.0,
    "DSSPID": "",
    "DSTERM": "FINAL RETRIEVAL VISIT",
    "DSDECOD": "FINAL RETRIEVAL VISIT",
    "DSCAT": "OTHER EVENT",
    "VISITNUM": 201.0,
    "VISIT": "RETRIEVAL",
    "DSDTC": "2013-05-20",
    "DSSTDTC": "2013-05-20",
    "DSSTDY": 172.0
  }
]