[
  {
    "STUDYID": "CDISCPILOT01",
    "DOMAIN": "EX",
    "USUBJID": "01-701-1015",
    "EXSEQ": 1.0,
    "EXTRT": "PLACEBO",
    "EXDOSE": 5.397605346934028e-79,
    "EXDOSU": "mg",
    "EXDOSFRM": "PATCH",
    "EXDOSFRQ": "QD",
    "EXROUTE": "TRANSDERMAL",
    "VISITNUM": 3.0,
    "VISIT": "BASELINE",
    "VISITDY": 1.0,
    "EXSTDTC": "2014-01-02",
    "EXENDTC": "2014-01-16",
    "EXSTDY": 1.0,
    "EXENDY": 15.0
  },
  {
    "STUDYID": "CDISCPILOT01",
    "DOMAIN": "EX",
    "USUBJID": "01-701-1015",
    "EXSEQ": 2.0,
    "EXTRT": "PLACEBO",
    "EXDOSE": 5.397605346934028e-79,
    "EXDOSU": "mg",
    "EXDOSFRM": "PATCH",
    "EXDOSFRQ": "QD",
    "EXROUTE": "TRANSDERMAL",
    "VISITNUM": 4.0,
    "VISIT": "WEEK 2",
    "VISITDY": 14.0,
    "EXSTDTC": "2014-01-17",
    "EXENDTC": "2014-06-18",
    "EXSTDY": 16.0,
    "EXENDY": 168.0
  },
  {
    "STUDYID": "CDISCPILOT01",
    "DOMAIN": "EX",
    "USUBJID": "01-701-1015",
    "EXSEQ": 3.0,
    "EXTRT": "PLACEBO",
    "EXDOSE": 5.397605346934028e-79,
    "EXDOSU": "mg",
    "EXDOSFRM": "PATCH",
    "EXDOSFRQ": "QD",
    "EXROUTE": "TRANSDERMAL",
    "VISITNUM": 12.0,
    "VISIT": "WEEK 24",
    "VISITDY": 168.0,
    "EXSTDTC": "2014-06-19",
    "EXENDTC": "2014-07-02",
    "EXSTDY": 169.0,
    "EXENDY": 182.0
  },
  {
    "STUDYID": "CDISCPILOT01",
    "DOMAIN": "EX",
    "USUBJID": "01-701-1023",
    "EXSEQ": 1.0,
    "EXTRT": "PLACEBO",
    "EXDOSE": 5.397605346934028e-79,
    "EXDOSU": "mg",
    "EXDOSFRM": "PATCH",
    "EXDOSFRQ": "QD",
    "EXROUTE": "TRANSDERMAL",
    "VISITNUM": 3.0,
    "VISIT": "BASELINE",
    "VISITDY": 1.0,
    "EXSTDTC": "2012-08-05",
    "EXENDTC": "2012-08-27",
    "EXSTDY": 1.0,
    "EXENDY": 23.0
  },
  {
    "STUDYID": "CDISCPILOT01",
    "DOMAIN": "EX",
    "USUBJID": "01-701-1023",
    "EXSEQ": 2.0,
    "EXTRT": "PLACEBO",
    "EXDOSE": 5.397605346934028e-79,
    "EXDOSU": "mg",
    "EXDOSFRM": "PATCH",
    "EXDOSFRQ": "QD",
    "EXROUTE": "TRANSDERMAL",
    "VISITNUM": 4.0,
    "VISIT": "WEEK 2",
    "VISITDY": 14.0,
    "EXSTDTC": "2012-08-28",
    "EXENDTC": "2012-09-01",
    "EXSTDY": 24.0,
    "EXENDY": 28.0
  },
  {
    "STUDYID": "CDISCPILOT01",
    "DOMAIN": "EX",
    "USUBJID": "01-701-1028",
    "EXSEQ": 1.0,
    "EXTRT": "XANOMELINE",
    "EXDOSE": 54.0,
    "EXDOSU": "mg",
    "EXDOSFRM": "PATCH",
    "EXDOSFRQ": "QD",
    "EXROUTE": "TRANSDERMAL",
    "VISITNUM": 3.0,
    "VISIT": "BASELINE",
    "VISITDY": 1.0,
    "EXSTDTC": "2013-07-19",
    "EXENDTC": "2013-08-01",
    "EXSTDY": 1.0,
    "EXENDY": 14.0
  },
  {
    "STUDYID": "CDISCPILOT01",
    "DOMAIN": "EX",
    "USUBJID": "01-701-1028",
    "EXSEQ": 2.0,
    "EXTRT": "XANOMELINE",
    "EXDOSE": 81.0,
    "EXDOSU": "mg",
    "EXDOSFRM": "PATCH",
    "EXDOSFRQ": "QD",
    "EXROUTE": "TRANSDERMAL",
    "VISITNUM": 4.0,
    "VISIT": "WEEK 2",
    "VISITDY": 14.0,
    "EXSTDTC": "2013-08-02",
    "EXENDTC": "2014-01-06",
    "EXSTDY": 15.0,
    "EXENDY": 172.0
  },
  {
    "STUDYID": "CDISCPILOT01",
    "DOMAIN": "EX",
    "USUBJID": "01-701-1028",
    "EXSEQ": 3.0,
    "EXTRT": "XANOMELINE",
    "EXDOSE": 54.0,
    "EXDOSU": "mg",
    "EXDOSFRM": "PATCH",
    "EXDOSFRQ": "QD",
    "EXROUTE": "TRANSDERMAL",
    "VISITNUM": 12.0,
    "VISIT": "WEEK 24",
    "VISITDY": 168.0,
    "EXSTDTC": "2014-01-07",
    "EXENDTC": "2014-01-14",
    "EXSTDY": 173.0,
    "EXENDY": 180.0
  },
  {
    "STUDYID": "CDISCPILOT01",
    "DOMAIN": "EX",
    "USUBJID": "01-701-1033",
    "EXSEQ": 1.0,
    "EXTRT": "XANOMELINE",
    "EXDOSE": 54.0,
    "EXDOSU": "mg",
    "EXDOSFRM": "PATCH",
    "EXDOSFRQ": "QD",
    "EXROUTE": "TRANSDERMAL",
    "VISITNUM": 3.0,
    "VISIT": "BASELINE",
    "VISITDY": 1.0,
    "EXSTDTC": "2014-03-18",
    "EXENDTC": "2014-03-31",
    "EXSTDY": 1.0,
    "EXENDY": 14.0
  },
  {
    "STUDYID": "CDISCPILOT01",
    "DOMAIN": "EX",
    "USUBJID": "01-701-1034",
    "EXSEQ": 1.0,
    "EXTRT": "XANOMELINE",
    "EXDOSE": 54.0,
    "EXDOSU": "mg",
    "EXDOSFRM": "PATCH",
    "EXDOSFRQ": "QD",
    "EXROUTE": "TRANSDERMAL",
    "VISITNUM": 3.0,
    "VISIT": "BASELINE",
    "VISITDY": 1.0,
    "EXSTDTC": "2014-07-01",
    "EXENDTC": "2014-07-15",
    "EXSTDY": 1.0,
    "EXENDY": 15.0
  },
  {
    "STUDYID": "CDISCPILOT01",
    "DOMAIN": "EX",
    "USUBJID": "01-701-1034",
    "EXSEQ": 2.0,
    "EXTRT": "XANOMELINE",
    "EXDOSE": 81.0,
    "EXDOSU": "mg",
    "EXDOSFRM": "PATCH",
    "EXDOSFRQ": "QD",
    "EXROUTE": "TRANSDERMAL",
    "VISITNUM": 4.0,
    "VISIT": "WEEK 2",
    "VISITDY": 14.0,
    "EXSTDTC": "2014-07-16",
    "EXENDTC": "2014-12-17",
    "EXSTDY": 16.0,
    "EXENDY": 170.0
  },
  {
    "STUDYID": "CDISCPILOT01",
    "DOMAIN": "EX",
    "USUBJID": "01-701-1034",
    "EXSEQ": 3.0,
    "EXTRT": "XANOMELINE",
    "EXDOSE": 54.0,
    "EXDOSU": "mg",
    "EXDOSFRM": "PATCH",
    "EXDOSFRQ": "QD",
    "EXROUTE": "TRANSDERMAL",
    "VISITNUM": 12.0,
    "VISIT": "WEEK 24",
    "VISITDY": 168.0,
    "EXSTDTC": "2014-12-18",
    "EXENDTC": "2014-12-30",
    "EXSTDY": 171.0,
    "EXENDY": 183.0
  },
  {
    "STUDYID": "CDISCPILOT01",
    "DOMAIN": "EX",
    "USUBJID": "01-701-1047",
    "EXSEQ": 1.0,
    "EXTRT": "PLACEBO",
    "EXDOSE": 5.397605346934028e-79,
    "EXDOSU": "mg",
    "EXDOSFRM": "PATCH",
    "EXDOSFRQ": "QD",
    "EXROUTE": "TRANSDERMAL",
    "VISITNUM": 3.0,
    "VISIT": "BASELINE",
    "VISITDY": 1.0,
    "EXSTDTC": "2013-02-12",
    "EXENDTC": "2013-02-25",
    "EXSTDY": 1.0,
    "EXENDY": 14.0
  },
  {
    "STUDYID": "CDISCPILOT01",
    "DOMAIN": "EX",
    "USUBJID": "01-701-1047",
    "EXSEQ": 2.0,
    "EXTRT": "PLACEBO",
    "EXDOSE": 5.397605346934028e-79,
    "EXDOSU": "mg",
    "EXDOSFRM": "PATCH",
    "EXDOSFRQ": "QD",
    "EXROUTE": "TRANSDERMAL",
    "VISITNUM": 4.0,
    "VISIT": "WEEK 2",
    "VISITDY": 14.0,
    "EXSTDTC": "2013-02-26",
    "EXENDTC": "2013-03-09",
    "EXSTDY": 15.0,
    "EXENDY": 26.0
  },
  {
    "STUDYID": "CDISCPILOT01",
    "DOMAIN": "EX",
    "USUBJID": "01-701-1097",
    "EXSEQ": 1.0,
    "EXTRT": "XANOMELINE",
    "EXDOSE": 54.0,
    "EXDOSU": "mg",
    "EXDOSFRM": "PATCH",
    "EXDOSFRQ": "QD",
    "EXROUTE": "TRANSDERMAL",
    "VISITNUM": 3.0,
    "VISIT": "BASELINE",
    "VISITDY": 1.0,
    "EXSTDTC": "2014-01-01",
    "EXENDTC": "2014-01-15",
    "EXSTDY": 1.0,
    "EXENDY": 15.0
  },
  {
    "STUDYID": "CDISCPILOT01",
    "DOMAIN": "EX",
    "USUBJID": "01-701-1097",
    "EXSEQ": 2.0,
    "EXTRT": "XANOMELINE",
    "EXDOSE": 54.0,
    "EXDOSU": "mg",
    "EXDOSFRM": "PATCH",
    "EXDOSFRQ": "QD",
    "EXROUTE": "TRANSDERMAL",
    "VISITNUM": 4.0,
    "VISIT": "WEEK 2",
    "VISITDY": 14.0,
    "EXSTDTC": "2014-01-16",
    "EXENDTC": "2014-06-18",
    "EXSTDY": 16.0,
    "EXENDY": 169.0
  },
  {
    "STUDYID": "CDISCPILOT01",
    "DOMAIN": "EX",
    "USUBJID": "01-701-1097",
    "EXSEQ": 3.0,
    "EXTRT": "XANOMELINE",
    "EXDOSE": 54.0,
    "EXDOSU": "mg",
    "EXDOSFRM": "PATCH",
    "EXDOSFRQ": "QD",
    "EXROUTE": "TRANSDERMAL",
    "VISITNUM": 12.0,
    "VISIT": "WEEK 24",
    "VISITDY": 168.0,
    "EXSTDTC": "2014-06-19",
    "EXENDTC": "2014-07-09",
    "EXSTDY": 170.0,
    "EXENDY": 190.0
  },
  {
    "STUDYID": "CDISCPILOT01",
    "DOMAIN": "EX",
    "USUBJID": "01-701-1111",
    "EXSEQ": 1.0,
    "EXTRT": "XANOMELINE",
    "EXDOSE": 54.0,
    "EXDOSU": "mg",
    "EXDOSFRM": "PATCH",
    "EXDOSFRQ": "QD",
    "EXROUTE": "TRANSDERMAL",
    "VISITNUM": 3.0,
    "VISIT": "BASELINE",
    "VISITDY": 1.0,
    "EXSTDTC": "2012-09-07",
    "EXENDTC": "2012-09-16",
    "EXSTDY": 1.0,
    "EXENDY": 10.0
  },
  {
    "STUDYID": "CDISCPILOT01",
    "DOMAIN": "EX",
    "USUBJID": "01-701-1115",
    "EXSEQ": 1.0,
    "EXTRT": "XANOMELINE",
    "EXDOSE": 54.0,
    "EXDOSU": "mg",
    "EXDOSFRM": "PATCH",
    "EXDOSFRQ": "QD",
    "EXROUTE": "TRANSDERMAL",
    "VISITNUM": 3.0,
    "VISIT": "BASELINE",
    "VISITDY": 1.0,
    "EXSTDTC": "2012-11-30",
    "EXENDTC": "2012-12-13",
    "EXSTDY": 1.0,
    "EXENDY": 14.0
  },
  {
    "STUDYID": "CDISCPILOT01",
    "DOMAIN": "EX",
    "USUBJID": "01-701-1115",
    "EXSEQ": 2.0,
    "EXTRT": "XANOMELINE",
    "EXDOSE": 54.0,
    "EXDOSU": "mg",
    "EXDOSFRM": "PATCH",
    "EXDOSFRQ": "QD",
    "EXROUTE": "TRANSDERMAL",
    "VISITNUM": 4.0,
    "VISIT": "WEEK 2",
    "VISITDY": 14.0,
    "EXSTDTC": "2012-12-14",
    "EXENDTC": "2013-01-23",
    "EXSTDY": 15.0,
    "EXENDY": 55.0
  }
]