[
  {
    "STUDYID": "CDISCPILOT01",
    "DOMAIN": "LB",
    "USUBJID": "01-701-1015",
    "LBSEQ": 2.0,
    "LBTESTCD": "ALP",
    "LBTEST": "Alkaline Phosphatase",
    "LBCAT": "CHEMISTRY",
    "LBORRES": "34",
    "LBORRESU": "U/L",
    "LBORNRLO": "35",
    "LBORNRHI": "115",
    "LBSTRESC": "34",
    "LBSTRESN": 34.0,
    "LBSTRESU": "U/L",
    "LBSTNRLO": 35.0,
    "LBSTNRHI": 115.0,
    "LBNRIND": "LOW",
    "LBBLFL": "Y",
    "VISITNUM": 1.0,
    "VISIT": "SCREENING 1",
    "VISITDY": -7.0,
    "LBDTC": "2013-12-26T14:45",
    "LBDY": -7.0
  },
  {
    "STUDYID": "CDISCPILOT01",
    "DOMAIN": "LB",
    "USUBJID": "01-701-1015",
    "LBSEQ": 40.0,
    "LBTESTCD": "ALP",
    "LBTEST": "Alkaline Phosphatase",
    "LBCAT": "CHEMISTRY",
    "LBORRES": "50",
    "LBORRESU": "U/L",
    "LBORNRLO": "35",
    "LBORNRHI": "115",
    "LBSTRESC": "50",
    "LBSTRESN": 50.0,
    "LBSTRESU": "U/L",
    "LBSTNRLO": 35.0,
    "LBSTNRHI": 115.0,
    "LBNRIND": "NORMAL",
    "LBBLFL": "",
    "VISITNUM": 4.0,
    "VISIT": "WEEK 2",
    "VISITDY": 14.0,
    "LBDTC": "2014-01-16T13:17",
    "LBDY": 15.0
  },
  {
    "STUDYID": "CDISCPILOT01",
    "DOMAIN": "LB",
    "USUBJID": "01-701-1015",
    "LBSEQ": 75.0,
    "LBTESTCD": "ALP",
    "LBTEST": "Alkaline Phosphatase",
    "LBCAT": "CHEMISTRY",
    "LBORRES": "41",
    "LBORRESU": "U/L",
    "LBORNRLO": "35",
    "LBORNRHI": "115",
    "LBSTRESC": "41",
    "LBSTRESN": 41.0,
    "LBSTRESU": "U/L",
    "LBSTNRLO": 35.0,
    "LBSTNRHI": 115.0,
    "LBNRIND": "NORMAL",
    "LBBLFL": "",
    "VISITNUM": 5.0,
    "VISIT": "WEEK 4",
    "VISITDY": 28.0,
    "LBDTC": "2014-01-30T08:50",
    "LBDY": 29.0
  },
  {
    "STUDYID": "CDISCPILOT01",
    "DOMAIN": "LB",
    "USUBJID": "01-701-1015",
    "LBSEQ": 105.0,
    "LBTESTCD": "ALP",
    "LBTEST": "Alkaline Phosphatase",
    "LBCAT": "CHEMISTRY",
    "LBORRES": "43",
    "LBORRESU": "U/L",
    "LBORNRLO": "35",
    "LBORNRHI": "115",
    "LBSTRESC": "43",
    "LBSTRESN": 43.0,
    "LBSTRESU": "U/L",
    "LBSTNRLO": 35.0,
    "LBSTNRHI": 115.0,
    "LBNRIND": "NORMAL",
    "LBBLFL": "",
    "VISITNUM": 7.0,
    "VISIT": "WEEK 6",
    "VISITDY": 42.0,
    "LBDTC": "2014-02-12T12:56",
    "LBDY": 42.0
  },
  {
    "STUDYID": "CDISCPILOT01",
    "DOMAIN": "LB",
    "USUBJID": "01-701-1015",
    "LBSEQ": 135.0,
    "LBTESTCD": "ALP",
    "LBTEST": "Alkaline Phosphatase",
    "LBCAT": "CHEMISTRY",
    "LBORRES": "47",
    "LBORRESU": "U/L",
    "LBORNRLO": "35",
    "LBORNRHI": "115",
    "LBSTRESC": "47",
    "LBSTRESN": 47.0,
    "LBSTRESU": "U/L",
    "LBSTNRLO": 35.0,
    "LBSTNRHI": 115.0,
    "LBNRIND": "NORMAL",
    "LBBLFL": "",
    "VISITNUM": 8.0,
    "VISIT": "WEEK 8",
    "VISITDY": 56.0,
    "LBDTC": "2014-03-05T12:25",
    "LBDY": 63.0
  },
  {
    "STUDYID": "CDISCPILOT01",
    "DOMAIN": "LB",
    "USUBJID": "01-701-1015",
    "LBSEQ": 165.0,
    "LBTESTCD": "ALP",
    "LBTEST": "Alkaline Phosphatase",
    "LBCAT": "CHEMISTRY",
    "LBORRES": "53",
    "LBORRESU": "U/L",
    "LBORNRLO": "35",
    "LBORNRHI": "115",
    "LBSTRESC": "53",
    "LBSTRESN": 53.0,
    "LBSTRESU": "U/L",
    "LBSTNRLO": 35.0,
    "LBSTNRHI": 115.0,
    "LBNRIND": "NORMAL",
    "LBBLFL": "",
    "VISITNUM": 9.0,
    "VISIT": "WEEK 12",
    "VISITDY": 84.0,
    "LBDTC": "2014-03-26T15:15",
    "LBDY": 84.0
  },
  {
    "STUDYID": "CDISCPILOT01",
    "DOMAIN": "LB",
    "USUBJID": "01-701-1015",
    "LBSEQ": 200.0,
    "LBTESTCD": "ALP",
    "LBTEST": "Alkaline Phosphatase",
    "LBCAT": "CHEMISTRY",
    "LBORRES": "41",
    "LBORRESU": "U/L",
    "LBORNRLO": "35",
    "LBORNRHI": "115",
    "LBSTRESC": "41",
    "LBSTRESN": 41.0,
    "LBSTRESU": "U/L",
    "LBSTNRLO": 35.0,
    "LBSTNRHI": 115.0,
    "LBNRIND": "NORMAL",
    "LBBLFL": "",
    "VISITNUM": 10.0,
    "VISIT": "WEEK 16",
    "VISITDY": 112.0,
    "LBDTC": "2014-05-07T11:21",
    "LBDY": 126.0
  },
  {
    "STUDYID": "CDISCPILOT01",
    "DOMAIN": "LB",
    "USUBJID": "01-701-1015",
    "LBSEQ": 230.0,
    "LBTESTCD": "ALP",
    "LBTEST": "Alkaline Phosphatase",
    "LBCAT": "CHEMISTRY",
    "LBORRES": "45",
    "LBORRESU": "U/L",
    "LBORNRLO": "35",
    "LBORNRHI": "115",
    "LBSTRESC": "45",
    "LBSTRESN": 45.0,
    "LBSTRESU": "U/L",
    "LBSTNRLO": 35.0,
    "LBSTNRHI": 115.0,
    "LBNRIND": "NORMAL",
    "LBBLFL": "",
    "VISITNUM": 11.0,
    "VISIT": "WEEK 20",
    "VISITDY": 140.0,
    "LBDTC": "2014-05-21T10:58",
    "LBDY": 140.0
  },
  {
    "STUDYID": "CDISCPILOT01",
    "DOMAIN": "LB",
    "USUBJID": "01-701-1015",
    "LBSEQ": 260.0,
    "LBTESTCD": "ALP",
    "LBTEST": "Alkaline Phosphatase",
    "LBCAT": "CHEMISTRY",
    "LBORRES": "46",
    "LBORRESU": "U/L",
    "LBORNRLO": "35",
    "LBORNRHI": "115",
    "LBSTRESC": "46",
    "LBSTRESN": 46.0,
    "LBSTRESU": "U/L",
    "LBSTNRLO": 35.0,
    "LBSTNRHI": 115.0,
    "LBNRIND": "NORMAL",
    "LBBLFL": "",
    "VISITNUM": 12.0,
    "VISIT": "WEEK 24",
    "VISITDY": 168.0,
    "LBDTC": "2014-06-18T13:00",
    "LBDY": 168.0
  },
  {
    "STUDYID": "CDISCPILOT01",
    "DOMAIN": "LB",
    "USUBJID": "01-701-1015",
    "LBSEQ": 295.0,
    "LBTESTCD": "ALP",
    "LBTEST": "Alkaline Phosphatase",
    "LBCAT": "CHEMISTRY",
    "LBORRES": "44",
    "LBORRESU": "U/L",
    "LBORNRLO": "35",
    "LBORNRHI": "115",
    "LBSTRESC": "44",
    "LBSTRESN": 44.0,
    "LBSTRESU": "U/L",
    "LBSTNRLO": 35.0,
    "LBSTNRHI": 115.0,
    "LBNRIND": "NORMAL",
    "LBBLFL": "",
    "VISITNUM": 13.0,
    "VISIT": "WEEK 26",
    "VISITDY": 182.0,
    "LBDTC": "2014-07-02T11:45",
    "LBDY": 182.0
  },
  {
    "STUDYID": "CDISCPILOT01",
    "DOMAIN": "LB",
    "USUBJID": "01-701-1015",
    "LBSEQ": 3.0,
    "LBTESTCD": "ALT",
    "LBTEST": "Alanine Aminotransferase",
    "LBCAT": "CHEMISTRY",
    "LBORRES": "27",
    "LBORRESU": "U/L",
    "LBORNRLO": "6",
    "LBORNRHI": "34",
    "LBSTRESC": "27",
    "LBSTRESN": 27.0,
    "LBSTRESU": "U/L",
    "LBSTNRLO": 6.0,
    "LBSTNRHI": 34.0,
    "LBNRIND": "NORMAL",
    "LBBLFL": "Y",
    "VISITNUM": 1.0,
    "VISIT": "SCREENING 1",
    "VISITDY": -7.0,
    "LBDTC": "2013-12-26T14:45",
    "LBDY": -7.0
  },
  {
    "STUDYID": "CDISCPILOT01",
    "DOMAIN": "LB",
    "USUBJID": "01-701-1015",
    "LBSEQ": 41.0,
    "LBTESTCD": "ALT",
    "LBTEST": "Alanine Aminotransferase",
    "LBCAT": "CHEMISTRY",
    "LBORRES": "41",
    "LBORRESU": "U/L",
    "LBORNRLO": "6",
    "LBORNRHI": "34",
    "LBSTRESC": "41",
    "LBSTRESN": 41.0,
    "LBSTRESU": "U/L",
    "LBSTNRLO": 6.0,
    "LBSTNRHI": 34.0,
    "LBNRIND": "HIGH",
    "LBBLFL": "",
    "VISITNUM": 4.0,
    "VISIT": "WEEK 2",
    "VISITDY": 14.0,
    "LBDTC": "2014-01-16T13:17",
    "LBDY": 15.0
  },
  {
    "STUDYID": "CDISCPILOT01",
    "DOMAIN": "LB",
    "USUBJID": "01-701-1015",
    "LBSEQ": 76.0,
    "LBTESTCD": "ALT",
    "LBTEST": "Alanine Aminotransferase",
    "LBCAT": "CHEMISTRY",
    "LBORRES": "18",
    "LBORRESU": "U/L",
    "LBORNRLO": "6",
    "LBORNRHI": "34",
    "LBSTRESC": "18",
    "LBSTRESN": 18.0,
    "LBSTRESU": "U/L",
    "LBSTNRLO": 6.0,
    "LBSTNRHI": 34.0,
    "LBNRIND": "NORMAL",
    "LBBLFL": "",
    "VISITNUM": 5.0,
    "VISIT": "WEEK 4",
    "VISITDY": 28.0,
    "LBDTC": "2014-01-30T08:50",
    "LBDY": 29.0
  },
  {
    "STUDYID": "CDISCPILOT01",
    "DOMAIN": "LB",
    "USUBJID": "01-701-1015",
    "LBSEQ": 106.0,
    "LBTESTCD": "ALT",
    "LBTEST": "Alanine Aminotransferase",
    "LBCAT": "CHEMISTRY",
    "LBORRES": "26",
    "LBORRESU": "U/L",
    "LBORNRLO": "6",
    "LBORNRHI": "34",
    "LBSTRESC": "26",
    "LBSTRESN": 26.0,
    "LBSTRESU": "U/L",
    "LBSTNRLO": 6.0,
    "LBSTNRHI": 34.0,
    "LBNRIND": "NORMAL",
    "LBBLFL": "",
    "VISITNUM": 7.0,
    "VISIT": "WEEK 6",
    "VISITDY": 42.0,
    "LBDTC": "2014-02-12T12:56",
    "LBDY": 42.0
  },
  {
    "STUDYID": "CDISCPILOT01",
    "DOMAIN": "LB",
    "USUBJID": "01-701-1015",
    "LBSEQ": 136.0,
    "LBTESTCD": "ALT",
    "LBTEST": "Alanine Aminotransferase",
    "LBCAT": "CHEMISTRY",
    "LBORRES": "22",
    "LBORRESU": "U/L",
    "LBORNRLO": "6",
    "LBORNRHI": "34",
    "LBSTRESC": "22",
    "LBSTRESN": 22.0,
    "LBSTRESU": "U/L",
    "LBSTNRLO": 6.0,
    "LBSTNRHI": 34.0,
    "LBNRIND": "NORMAL",
    "LBBLFL": "",
    "VISITNUM": 8.0,
    "VISIT": "WEEK 8",
    "VISITDY": 56.0,
    "LBDTC": "2014-03-05T12:25",
    "LBDY": 63.0
  },
  {
    "STUDYID": "CDISCPILOT01",
    "DOMAIN": "LB",
    "USUBJID": "01-701-1015",
    "LBSEQ": 166.0,
    "LBTESTCD": "ALT",
    "LBTEST": "Alanine Aminotransferase",
    "LBCAT": "CHEMISTRY",
    "LBORRES": "27",
    "LBORRESU": "U/L",
    "LBORNRLO": "6",
    "LBORNRHI": "34",
    "LBSTRESC": "27",
    "LBSTRESN": 27.0,
    "LBSTRESU": "U/L",
    "LBSTNRLO": 6.0,
    "LBSTNRHI": 34.0,
    "LBNRIND": "NORMAL",
    "LBBLFL": "",
    "VISITNUM": 9.0,
    "VISIT": "WEEK 12",
    "VISITDY": 84.0,
    "LBDTC": "2014-03-26T15:15",
    "LBDY": 84.0
  },
  {
    "STUDYID": "CDISCPILOT01",
    "DOMAIN": "LB",
    "USUBJID": "01-701-1015",
    "LBSEQ": 201.0,
    "LBTESTCD": "ALT",
    "LBTEST": "Alanine Aminotransferase",
    "LBCAT": "CHEMISTRY",
    "LBORRES": "17",
    "LBORRESU": "U/L",
    "LBORNRLO": "6",
    "LBORNRHI": "34",
    "LBSTRESC": "17",
    "LBSTRESN": 17.0,
    "LBSTRESU": "U/L",
    "LBSTNRLO": 6.0,
    "LBSTNRHI": 34.0,
    "LBNRIND": "NORMAL",
    "LBBLFL": "",
    "VISITNUM": 10.0,
    "VISIT": "WEEK 16",
    "VISITDY": 112.0,
    "LBDTC": "2014-05-07T11:21",
    "LBDY": 126.0
  },
  {
    "STUDYID": "CDISCPILOT01",
    "DOMAIN": "LB",
    "USUBJID": "01-701-1015",
    "LBSEQ": 231.0,
    "LBTESTCD": "ALT",
    "LBTEST": "Alanine Aminotransferase",
    "LBCAT": "CHEMISTRY",
    "LBORRES": "21",
    "LBORRESU": "U/L",
    "LBORNRLO": "6",
    "LBORNRHI": "34",
    "LBSTRESC": "21",
    "LBSTRESN": 21.0,
    "LBSTRESU": "U/L",
    "LBSTNRLO": 6.0,
    "LBSTNRHI": 34.0,
    "LBNRIND": "NORMAL",
    "LBBLFL": "",
    "VISITNUM": 11.0,
    "VISIT": "WEEK 20",
    "VISITDY": 140.0,
    "LBDTC": "2014-05-21T10:58",
    "LBDY": 140.0
  },
  {
    "STUDYID": "CDISCPILOT01",
    "DOMAIN": "LB",
    "USUBJID": "01-701-1015",
    "LBSEQ": 261.0,
    "LBTESTCD": "ALT",
    "LBTEST": "Alanine Aminotransferase",
    "LBCAT": "CHEMISTRY",
    "LBORRES": "23",
    "LBORRESU": "U/L",
    "LBORNRLO": "6",
    "LBORNRHI": "34",
    "LBSTRESC": "23",
    "LBSTRESN": 23.0,
    "LBSTRESU": "U/L",
    "LBSTNRLO": 6.0,
    "LBSTNRHI": 34.0,
    "LBNRIND": "NORMAL",
    "LBBLFL": "",
    "VISITNUM": 12.0,
    "VISIT": "WEEK 24",
    "VISITDY": 168.0,
    "LBDTC": "2014-06-18T13:00",
    "LBDY": 168.0
  },
  {
    "STUDYID": "CDISCPILOT01",
    "DOMAIN": "LB",
    "USUBJID": "01-701-1015",
    "LBSEQ": 296.0,
    "LBTESTCD": "ALT",
    "LBTEST": "Alanine Aminotransferase",
    "LBCAT": "CHEMISTRY",
    "LBORRES": "23",
    "LBORRESU": "U/L",
    "LBORNRLO": "6",
    "LBORNRHI": "34",
    "LBSTRESC": "23",
    "LBSTRESN": 23.0,
    "LBSTRESU": "U/L",
    "LBSTNRLO": 6.0,
    "LBSTNRHI": 34.0,
    "LBNRIND": "NORMAL",
    "LBBLFL": "",
    "VISITNUM": 13.0,
    "VISIT": "WEEK 26",
    "VISITDY": 182.0,
    "LBDTC": "2014-07-02T11:45",
    "LBDY": 182.0
  },
  {
    "STUDYID": "CDISCPILOT01",
    "DOMAIN": "LB",
    "USUBJID": "01-701-1015",
    "LBSEQ": 5.0,
    "LBTESTCD": "AST",
    "LBTEST": "Aspartate Aminotransferase",
    "LBCAT": "CHEMISTRY",
    "LBORRES": "40",
    "LBORRESU": "U/L",
    "LBORNRLO": "9",
    "LBORNRHI": "34",
    "LBSTRESC": "40",
    "LBSTRESN": 40.0,
    "LBSTRESU": "U/L",
    "LBSTNRLO": 9.0,
    "LBSTNRHI": 34.0,
    "LBNRIND": "HIGH",
    "LBBLFL": "Y",
    "VISITNUM": 1.0,
    "VISIT": "SCREENING 1",
    "VISITDY": -7.0,
    "LBDTC": "2013-12-26T14:45",
    "LBDY": -7.0
  },
  {
    "STUDYID": "CDISCPILOT01",
    "DOMAIN": "LB",
    "USUBJID": "01-701-1015",
    "LBSEQ": 42.0,
    "LBTESTCD": "AST",
    "LBTEST": "Aspartate Aminotransferase",
    "LBCAT": "CHEMISTRY",
    "LBORRES": "33",
    "LBORRESU": "U/L",
    "LBORNRLO": "9",
    "LBORNRHI": "34",
    "LBSTRESC": "33",
    "LBSTRESN": 33.0,
    "LBSTRESU": "U/L",
    "LBSTNRLO": 9.0,
    "LBSTNRHI": 34.0,
    "LBNRIND": "NORMAL",
    "LBBLFL": "",
    "VISITNUM": 4.0,
    "VISIT": "WEEK 2",
    "VISITDY": 14.0,
    "LBDTC": "2014-01-16T13:17",
    "LBDY": 15.0
  },
  {
    "STUDYID": "CDISCPILOT01",
    "DOMAIN": "LB",
    "USUBJID": "01-701-1015",
    "LBSEQ": 77.0,
    "LBTESTCD": "AST",
    "LBTEST": "Aspartate Aminotransferase",
    "LBCAT": "CHEMISTRY",
    "LBORRES": "21",
    "LBORRESU": "U/L",
    "LBORNRLO": "9",
    "LBORNRHI": "34",
    "LBSTRESC": "21",
    "LBSTRESN": 21.0,
    "LBSTRESU": "U/L",
    "LBSTNRLO": 9.0,
    "LBSTNRHI": 34.0,
    "LBNRIND": "NORMAL",
    "LBBLFL": "",
    "VISITNUM": 5.0,
    "VISIT": "WEEK 4",
    "VISITDY": 28.0,
    "LBDTC": "2014-01-30T08:50",
    "LBDY": 29.0
  },
  {
    "STUDYID": "CDISCPILOT01",
    "DOMAIN": "LB",
    "USUBJID": "01-701-1015",
    "LBSEQ": 107.0,
    "LBTESTCD": "AST",
    "LBTEST": "Aspartate Aminotransferase",
    "LBCAT": "CHEMISTRY",
    "LBORRES": "26",
    "LBORRESU": "U/L",
    "LBORNRLO": "9",
    "LBORNRHI": "34",
    "LBSTRESC": "26",
    "LBSTRESN": 26.0,
    "LBSTRESU": "U/L",
    "LBSTNRLO": 9.0,
    "LBSTNRHI": 34.0,
    "LBNRIND": "NORMAL",
    "LBBLFL": "",
    "VISITNUM": 7.0,
    "VISIT": "WEEK 6",
    "VISITDY": 42.0,
    "LBDTC": "2014-02-12T12:56",
    "LBDY": 42.0
  },
  {
    "STUDYID": "CDISCPILOT01",
    "DOMAIN": "LB",
    "USUBJID": "01-701-1015",
    "LBSEQ": 137.0,
    "LBTESTCD": "AST",
    "LBTEST": "Aspartate Aminotransferase",
    "LBCAT": "CHEMISTRY",
    "LBORRES": "21",
    "LBORRESU": "U/L",
    "LBORNRLO": "9",
    "LBORNRHI": "34",
    "LBSTRESC": "21",
    "LBSTRESN": 21.0,
    "LBSTRESU": "U/L",
    "LBSTNRLO": 9.0,
    "LBSTNRHI": 34.0,
    "LBNRIND": "NORMAL",
    "LBBLFL": "",
    "VISITNUM": 8.0,
    "VISIT": "WEEK 8",
    "VISITDY": 56.0,
    "LBDTC": "2014-03-05T12:25",
    "LBDY": 63.0
  },
  {
    "STUDYID": "CDISCPILOT01",
    "DOMAIN": "LB",
    "USUBJID": "01-701-1015",
    "LBSEQ": 167.0,
    "LBTESTCD": "AST",
    "LBTEST": "Aspartate Aminotransferase",
    "LBCAT": "CHEMISTRY",
    "LBORRES": "22",
    "LBORRESU": "U/L",
    "LBORNRLO": "9",
    "LBORNRHI": "34",
    "LBSTRESC": "22",
    "LBSTRESN": 22.0,
    "LBSTRESU": "U/L",
    "LBSTNRLO": 9.0,
    "LBSTNRHI": 34.0,
    "LBNRIND": "NORMAL",
    "LBBLFL": "",
    "VISITNUM": 9.0,
    "VISIT": "WEEK 12",
    "VISITDY": 84.0,
    "LBDTC": "2014-03-26T15:15",
    "LBDY": 84.0
  },
  {
    "STUDYID": "CDISCPILOT01",
    "DOMAIN": "LB",
    "USUBJID": "01-701-1015",
    "LBSEQ": 202.0,
    "LBTESTCD": "AST",
    "LBTEST": "Aspartate Aminotransferase",
    "LBCAT": "CHEMISTRY",
    "LBORRES": "23",
    "LBORRESU": "U/L",
    "LBORNRLO": "9",
    "LBORNRHI": "34",
    "LBSTRESC": "23",
    "LBSTRESN": 23.0,
    "LBSTRESU": "U/L",
    "LBSTNRLO": 9.0,
    "LBSTNRHI": 34.0,
    "LBNRIND": "NORMAL",
    "LBBLFL": "",
    "VISITNUM": 10.0,
    "VISIT": "WEEK 16",
    "VISITDY": 112.0,
    "LBDTC": "2014-05-07T11:21",
    "LBDY": 126.0
  },
  {
    "STUDYID": "CDISCPILOT01",
    "DOMAIN": "LB",
    "USUBJID": "01-701-1015",
    "LBSEQ": 232.0,
    "LBTESTCD": "AST",
    "LBTEST": "Aspartate Aminotransferase",
    "LBCAT": "CHEMISTRY",
    "LBORRES": "19",
    "LBORRESU": "U/L",
    "LBORNRLO": "9",
    "LBORNRHI": "34",
    "LBSTRESC": "19",
    "LBSTRESN": 19.0,
    "LBSTRESU": "U/L",
    "LBSTNRLO": 9.0,
    "LBSTNRHI": 34.0,
    "LBNRIND": "NORMAL",
    "LBBLFL": "",
    "VISITNUM": 11.0,
    "VISIT": "WEEK 20",
    "VISITDY": 140.0,
    "LBDTC": "2014-05-21T10:58",
    "LBDY": 140.0
  },
  {
    "STUDYID": "CDISCPILOT01",
    "DOMAIN": "LB",
    "USUBJID": "01-701-1015",
    "LBSEQ": 262.0,
    "LBTESTCD": "AST",
    "LBTEST": "Aspartate Aminotransferase",
    "LBCAT": "CHEMISTRY",
    "LBORRES": "23",
    "LBORRESU": "U/L",
    "LBORNRLO": "9",
    "LBORNRHI": "34",
    "LBSTRESC": "23",
    "LBSTRESN": 23.0,
    "LBSTRESU": "U/L",
    "LBSTNRLO": 9.0,
    "LBSTNRHI": 34.0,
    "LBNRIND": "NORMAL",
    "LBBLFL": "",
    "VISITNUM": 12.0,
    "VISIT": "WEEK 24",
    "VISITDY": 168.0,
    "LBDTC": "2014-06-18T13:00",
    "LBDY": 168.0
  },
  {
    "STUDYID": "CDISCPILOT01",
    "DOMAIN": "LB",
    "USUBJID": "01-701-1015",
    "LBSEQ": 297.0,
    "LBTESTCD": "AST",
    "LBTEST": "Aspartate Aminotransferase",
    "LBCAT": "CHEMISTRY",
    "LBORRES": "19",
    "LBORRESU": "U/L",
    "LBORNRLO": "9",
    "LBORNRHI": "34",
    "LBSTRESC": "19",
    "LBSTRESN": 19.0,
    "LBSTRESU": "U/L",
    "LBSTNRLO": 9.0,
    "LBSTNRHI": 34.0,
    "LBNRIND": "NORMAL",
    "LBBLFL": "",
    "VISITNUM": 13.0,
    "VISIT": "WEEK 26",
    "VISITDY": 182.0,
    "LBDTC": "2014-07-02T11:45",
    "LBDY": 182.0
  },
  {
    "STUDYID": "CDISCPILOT01",
    "DOMAIN": "LB",
    "USUBJID": "01-701-1023",
    "LBSEQ": 2.0,
    "LBTESTCD": "ALP",
    "LBTEST": "Alkaline Phosphatase",
    "LBCAT": "CHEMISTRY",
    "LBORRES": "98",
    "LBORRESU": "U/L",
    "LBORNRLO": "35",
    "LBORNRHI": "115",
    "LBSTRESC": "98",
    "LBSTRESN": 98.0,
    "LBSTRESU": "U/L",
    "LBSTNRLO": 35.0,
    "LBSTNRHI": 115.0,
    "LBNRIND": "NORMAL",
    "LBBLFL": "Y",
    "VISITNUM": 1.0,
    "VISIT": "SCREENING 1",
    "VISITDY": -7.0,
    "LBDTC": "2012-07-22T12:13",
    "LBDY": -14.0
  },
  {
    "STUDYID": "CDISCPILOT01",
    "DOMAIN": "LB",
    "USUBJID": "01-701-1023",
    "LBSEQ": 39.0,
    "LBTESTCD": "ALP",
    "LBTEST": "Alkaline Phosphatase",
    "LBCAT": "CHEMISTRY",
    "LBORRES": "90",
    "LBORRESU": "U/L",
    "LBORNRLO": "35",
    "LBORNRHI": "115",
    "LBSTRESC": "90",
    "LBSTRESN": 90.0,
    "LBSTRESU": "U/L",
    "LBSTNRLO": 35.0,
    "LBSTNRHI": 115.0,
    "LBNRIND": "NORMAL",
    "LBBLFL": "",
    "VISITNUM": 4.0,
    "VISIT": "WEEK 2",
    "VISITDY": 14.0,
    "LBDTC": "2012-08-27T15:47",
    "LBDY": 23.0
  },
  {
    "STUDYID": "CDISCPILOT01",
    "DOMAIN": "LB",
    "USUBJID": "01-701-1023",
    "LBSEQ": 74.0,
    "LBTESTCD": "ALP",
    "LBTEST": "Alkaline Phosphatase",
    "LBCAT": "CHEMISTRY",
    "LBORRES": "99",
    "LBORRESU": "U/L",
    "LBORNRLO": "35",
    "LBORNRHI": "115",
    "LBSTRESC": "99",
    "LBSTRESN": 99.0,
    "LBSTRESU": "U/L",
    "LBSTNRLO": 35.0,
    "LBSTNRHI": 115.0,
    "LBNRIND": "NORMAL",
    "LBBLFL": "",
    "VISITNUM": 5.0,
    "VISIT": "WEEK 4",
    "VISITDY": 28.0,
    "LBDTC": "2012-09-02T10:15",
    "LBDY": 29.0
  },
  {
    "STUDYID": "CDISCPILOT01",
    "DOMAIN": "LB",
    "USUBJID": "01-701-1023",
    "LBSEQ": 3.0,
    "LBTESTCD": "ALT",
    "LBTEST": "Alanine Aminotransferase",
    "LBCAT": "CHEMISTRY",
    "LBORRES": "23",
    "LBORRESU": "U/L",
    "LBORNRLO": "6",
    "LBORNRHI": "43",
    "LBSTRESC": "23",
    "LBSTRESN": 23.0,
    "LBSTRESU": "U/L",
    "LBSTNRLO": 6.0,
    "LBSTNRHI": 43.0,
    "LBNRIND": "NORMAL",
    "LBBLFL": "Y",
    "VISITNUM": 1.0,
    "VISIT": "SCREENING 1",
    "VISITDY": -7.0,
    "LBDTC": "2012-07-22T12:13",
    "LBDY": -14.0
  },
  {
    "STUDYID": "CDISCPILOT01",
    "DOMAIN": "LB",
    "USUBJID": "01-701-1023",
    "LBSEQ": 40.0,
    "LBTESTCD": "ALT",
    "LBTEST": "Alanine Aminotransferase",
    "LBCAT": "CHEMISTRY",
    "LBORRES": "30",
    "LBORRESU": "U/L",
    "LBORNRLO": "6",
    "LBORNRHI": "43",
    "LBSTRESC": "30",
    "LBSTRESN": 30.0,
    "LBSTRESU": "U/L",
    "LBSTNRLO": 6.0,
    "LBSTNRHI": 43.0,
    "LBNRIND": "NORMAL",
    "LBBLFL": "",
    "VISITNUM": 4.0,
    "VISIT": "WEEK 2",
    "VISITDY": 14.0,
    "LBDTC": "2012-08-27T15:47",
    "LBDY": 23.0
  },
  {
    "STUDYID": "CDISCPILOT01",
    "DOMAIN": "LB",
    "USUBJID": "01-701-1023",
    "LBSEQ": 75.0,
    "LBTESTCD": "ALT",
    "LBTEST": "Alanine Aminotransferase",
    "LBCAT": "CHEMISTRY",
    "LBORRES": "38",
    "LBORRESU": "U/L",
    "LBORNRLO": "6",
    "LBORNRHI": "43",
    "LBSTRESC": "38",
    "LBSTRESN": 38.0,
    "LBSTRESU": "U/L",
    "LBSTNRLO": 6.0,
    "LBSTNRHI": 43.0,
    "LBNRIND": "NORMAL",
    "LBBLFL": "",
    "VISITNUM": 5.0,
    "VISIT": "WEEK 4",
    "VISITDY": 28.0,
    "LBDTC": "2012-09-02T10:15",
    "LBDY": 29.0
  },
  {
    "STUDYID": "CDISCPILOT01",
    "DOMAIN": "LB",
    "USUBJID": "01-701-1023",
    "LBSEQ": 4.0,
    "LBTESTCD": "AST",
    "LBTEST": "Aspartate Aminotransferase",
    "LBCAT": "CHEMISTRY",
    "LBORRES": "21",
    "LBORRESU": "U/L",
    "LBORNRLO": "11",
    "LBORNRHI": "36",
    "LBSTRESC": "21",
    "LBSTRESN": 21.0,
    "LBSTRESU": "U/L",
    "LBSTNRLO": 11.0,
    "LBSTNRHI": 36.0,
    "LBNRIND": "NORMAL",
    "LBBLFL": "Y",
    "VISITNUM": 1.0,
    "VISIT": "SCREENING 1",
    "VISITDY": -7.0,
    "LBDTC": "2012-07-22T12:13",
    "LBDY": -14.0
  },
  {
    "STUDYID": "CDISCPILOT01",
    "DOMAIN": "LB",
    "USUBJID": "01-701-1023",
    "LBSEQ": 41.0,
    "LBTESTCD": "AST",
    "LBTEST": "Aspartate Aminotransferase",
    "LBCAT": "CHEMISTRY",
    "LBORRES": "25",
    "LBORRESU": "U/L",
    "LBORNRLO": "11",
    "LBORNRHI": "36",
    "LBSTRESC": "25",
    "LBSTRESN": 25.0,
    "LBSTRESU": "U/L",
    "LBSTNRLO": 11.0,
    "LBSTNRHI": 36.0,
    "LBNRIND": "NORMAL",
    "LBBLFL": "",
    "VISITNUM": 4.0,
    "VISIT": "WEEK 2",
    "VISITDY": 14.0,
    "LBDTC": "2012-08-27T15:47",
    "LBDY": 23.0
  },
  {
    "STUDYID": "CDISCPILOT01",
    "DOMAIN": "LB",
    "USUBJID": "01-701-1023",
    "LBSEQ": 76.0,
    "LBTESTCD": "AST",
    "LBTEST": "Aspartate Aminotransferase",
    "LBCAT": "CHEMISTRY",
    "LBORRES": "30",
    "LBORRESU": "U/L",
    "LBORNRLO": "11",
    "LBORNRHI": "36",
    "LBSTRESC": "30",
    "LBSTRESN": 30.0,
    "LBSTRESU": "U/L",
    "LBSTNRLO": 11.0,
    "LBSTNRHI": 36.0,
    "LBNRIND": "NORMAL",
    "LBBLFL": "",
    "VISITNUM": 5.0,
    "VISIT": "WEEK 4",
    "VISITDY": 28.0,
    "LBDTC": "2012-09-02T10:15",
    "LBDY": 29.0
  },
  {
    "STUDYID": "CDISCPILOT01",
    "DOMAIN": "LB",
    "USUBJID": "01-701-1028",
    "LBSEQ": 2.0,
    "LBTESTCD": "ALP",
    "LBTEST": "Alkaline Phosphatase",
    "LBCAT": "CHEMISTRY",
    "LBORRES": "44",
    "LBORRESU": "U/L",
    "LBORNRLO": "35",
    "LBORNRHI": "115",
    "LBSTRESC": "44",
    "LBSTRESN": 44.0,
    "LBSTRESU": "U/L",
    "LBSTNRLO": 35.0,
    "LBSTNRHI": 115.0,
    "LBNRIND": "NORMAL",
    "LBBLFL": "Y",
    "VISITNUM": 1.0,
    "VISIT": "SCREENING 1",
    "VISITDY": -7.0,
    "LBDTC": "2013-07-11T12:02",
    "LBDY": -8.0
  },
  {
    "STUDYID": "CDISCPILOT01",
    "DOMAIN": "LB",
    "USUBJID": "01-701-1028",
    "LBSEQ": 39.0,
    "LBTESTCD": "ALP",
    "LBTEST": "Alkaline Phosphatase",
    "LBCAT": "CHEMISTRY",
    "LBORRES": "46",
    "LBORRESU": "U/L",
    "LBORNRLO": "35",
    "LBORNRHI": "115",
    "LBSTRESC": "46",
    "LBSTRESN": 46.0,
    "LBSTRESU": "U/L",
    "LBSTNRLO": 35.0,
    "LBSTNRHI": 115.0,
    "LBNRIND": "NORMAL",
    "LBBLFL": "",
    "VISITNUM": 4.0,
    "VISIT": "WEEK 2",
    "VISITDY": 14.0,
    "LBDTC": "2013-08-01T09:15",
    "LBDY": 14.0
  },
  {
    "STUDYID": "CDISCPILOT01",
    "DOMAIN": "LB",
    "USUBJID": "01-701-1028",
    "LBSEQ": 74.0,
    "LBTESTCD": "ALP",
    "LBTEST": "Alkaline Phosphatase",
    "LBCAT": "CHEMISTRY",
    "LBORRES": "38",
    "LBORRESU": "U/L",
    "LBORNRLO": "35",
    "LBORNRHI": "115",
    "LBSTRESC": "38",
    "LBSTRESN": 38.0,
    "LBSTRESU": "U/L",
    "LBSTNRLO": 35.0,
    "LBSTNRHI": 115.0,
    "LBNRIND": "NORMAL",
    "LBBLFL": "",
    "VISITNUM": 5.0,
    "VISIT": "WEEK 4",
    "VISITDY": 28.0,
    "LBDTC": "2013-08-14T13:24",
    "LBDY": 27.0
  },
  {
    "STUDYID": "CDISCPILOT01",
    "DOMAIN": "LB",
    "USUBJID": "01-701-1028",
    "LBSEQ": 104.0,
    "LBTESTCD": "ALP",
    "LBTEST": "Alkaline Phosphatase",
    "LBCAT": "CHEMISTRY",
    "LBORRES": "40",
    "LBORRESU": "U/L",
    "LBORNRLO": "35",
    "LBORNRHI": "115",
    "LBSTRESC": "40",
    "LBSTRESN": 40.0,
    "LBSTRESU": "U/L",
    "LBSTNRLO": 35.0,
    "LBSTNRHI": 115.0,
    "LBNRIND": "NORMAL",
    "LBBLFL": "",
    "VISITNUM": 7.0,
    "VISIT": "WEEK 6",
    "VISITDY": 42.0,
    "LBDTC": "2013-08-29T11:54",
    "LBDY": 42.0
  },
  {
    "STUDYID": "CDISCPILOT01",
    "DOMAIN": "LB",
    "USUBJID": "01-701-1028",
    "LBSEQ": 134.0,
    "LBTESTCD": "ALP",
    "LBTEST": "Alkaline Phosphatase",
    "LBCAT": "CHEMISTRY",
    "LBORRES": "40",
    "LBORRESU": "U/L",
    "LBORNRLO": "35",
    "LBORNRHI": "115",
    "LBSTRESC": "40",
    "LBSTRESN": 40.0,
    "LBSTRESU": "U/L",
    "LBSTNRLO": 35.0,
    "LBSTNRHI": 115.0,
    "LBNRIND": "NORMAL",
    "LBBLFL": "",
    "VISITNUM": 8.0,
    "VISIT": "WEEK 8",
    "VISITDY": 56.0,
    "LBDTC": "2013-09-10T09:13",
    "LBDY": 54.0
  },
  {
    "STUDYID": "CDISCPILOT01",
    "DOMAIN": "LB",
    "USUBJID": "01-701-1028",
    "LBSEQ": 164.0,
    "LBTESTCD": "ALP",
    "LBTEST": "Alkaline Phosphatase",
    "LBCAT": "CHEMISTRY",
    "LBORRES": "41",
    "LBORRESU": "U/L",
    "LBORNRLO": "35",
    "LBORNRHI": "115",
    "LBSTRESC": "41",
    "LBSTRESN": 41.0,
    "LBSTRESU": "U/L",
    "LBSTNRLO": 35.0,
    "LBSTNRHI": 115.0,
    "LBNRIND": "NORMAL",
    "LBBLFL": "",
    "VISITNUM": 9.0,
    "VISIT": "WEEK 12",
    "VISITDY": 84.0,
    "LBDTC": "2013-10-09T08:42",
    "LBDY": 83.0
  },
  {
    "STUDYID": "CDISCPILOT01",
    "DOMAIN": "LB",
    "USUBJID": "01-701-1028",
    "LBSEQ": 199.0,
    "LBTESTCD": "ALP",
    "LBTEST": "Alkaline Phosphatase",
    "LBCAT": "CHEMISTRY",
    "LBORRES": "36",
    "LBORRESU": "U/L",
    "LBORNRLO": "35",
    "LBORNRHI": "115",
    "LBSTRESC": "36",
    "LBSTRESN": 36.0,
    "LBSTRESU": "U/L",
    "LBSTNRLO": 35.0,
    "LBSTNRHI": 115.0,
    "LBNRIND": "NORMAL",
    "LBBLFL": "",
    "VISITNUM": 10.0,
    "VISIT": "WEEK 16",
    "VISITDY": 112.0,
    "LBDTC": "2013-11-06T10:08",
    "LBDY": 111.0
  },
  {
    "STUDYID": "CDISCPILOT01",
    "DOMAIN": "LB",
    "USUBJID": "01-701-1028",
    "LBSEQ": 231.0,
    "LBTESTCD": "ALP",
    "LBTEST": "Alkaline Phosphatase",
    "LBCAT": "CHEMISTRY",
    "LBORRES": "43",
    "LBORRESU": "U/L",
    "LBORNRLO": "35",
    "LBORNRHI": "115",
    "LBSTRESC": "43",
    "LBSTRESN": 43.0,
    "LBSTRESU": "U/L",
    "LBSTNRLO": 35.0,
    "LBSTNRHI": 115.0,
    "LBNRIND": "NORMAL",
    "LBBLFL": "",
    "VISITNUM": 11.0,
    "VISIT": "WEEK 20",
    "VISITDY": 140.0,
    "LBDTC": "2013-12-04T15:10",
    "LBDY": 139.0
  },
  {
    "STUDYID": "CDISCPILOT01",
    "DOMAIN": "LB",
    "USUBJID": "01-701-1028",
    "LBSEQ": 262.0,
    "LBTESTCD": "ALP",
    "LBTEST": "Alkaline Phosphatase",
    "LBCAT": "CHEMISTRY",
    "LBORRES": "47",
    "LBORRESU": "U/L",
    "LBORNRLO": "35",
    "LBORNRHI": "115",
    "LBSTRESC": "47",
    "LBSTRESN": 47.0,
    "LBSTRESU": "U/L",
    "LBSTNRLO": 35.0,
    "LBSTNRHI": 115.0,
    "LBNRIND": "NORMAL",
    "LBBLFL": "",
    "VISITNUM": 12.0,
    "VISIT": "WEEK 24",
    "VISITDY": 168.0,
    "LBDTC": "2014-01-06T10:00",
    "LBDY": 172.0
  },
  {
    "STUDYID": "CDISCPILOT01",
    "DOMAIN": "LB",
    "USUBJID": "01-701-1028",
    "LBSEQ": 299.0,
    "LBTESTCD": "ALP",
    "LBTEST": "Alkaline Phosphatase",
    "LBCAT": "CHEMISTRY",
    "LBORRES": "40",
    "LBORRESU": "U/L",
    "LBORNRLO": "35",
    "LBORNRHI": "115",
    "LBSTRESC": "40",
    "LBSTRESN": 40.0,
    "LBSTRESU": "U/L",
    "LBSTNRLO": 35.0,
    "LBSTNRHI": 115.0,
    "LBNRIND": "NORMAL",
    "LBBLFL": "",
    "VISITNUM": 13.0,
    "VISIT": "WEEK 26",
    "VISITDY": 182.0,
    "LBDTC": "2014-01-14T11:10",
    "LBDY": 180.0
  },
  {
    "STUDYID": "CDISCPILOT01",
    "DOMAIN": "LB",
    "USUBJID": "01-701-1028",
    "LBSEQ": 3.0,
    "LBTESTCD": "ALT",
    "LBTEST": "Alanine Aminotransferase",
    "LBCAT": "CHEMISTRY",
    "LBORRES": "26",
    "LBORRESU": "U/L",
    "LBORNRLO": "6",
    "LBORNRHI": "35",
    "LBSTRESC": "26",
    "LBSTRESN": 26.0,
    "LBSTRESU": "U/L",
    "LBSTNRLO": 6.0,
    "LBSTNRHI": 35.0,
    "LBNRIND": "NORMAL",
    "LBBLFL": "Y",
    "VISITNUM": 1.0,
    "VISIT": "SCREENING 1",
    "VISITDY": -7.0,
    "LBDTC": "2013-07-11T12:02",
    "LBDY": -8.0
  },
  {
    "STUDYID": "CDISCPILOT01",
    "DOMAIN": "LB",
    "USUBJID": "01-701-1028",
    "LBSEQ": 40.0,
    "LBTESTCD": "ALT",
    "LBTEST": "Alanine Aminotransferase",
    "LBCAT": "CHEMISTRY",
    "LBORRES": "30",
    "LBORRESU": "U/L",
    "LBORNRLO": "6",
    "LBORNRHI": "35",
    "LBSTRESC": "30",
    "LBSTRESN": 30.0,
    "LBSTRESU": "U/L",
    "LBSTNRLO": 6.0,
    "LBSTNRHI": 35.0,
    "LBNRIND": "NORMAL",
    "LBBLFL": "",
    "VISITNUM": 4.0,
    "VISIT": "WEEK 2",
    "VISITDY": 14.0,
    "LBDTC": "2013-08-01T09:15",
    "LBDY": 14.0
  },
  {
    "STUDYID": "CDISCPILOT01",
    "DOMAIN": "LB",
    "USUBJID": "01-701-1028",
    "LBSEQ": 75.0,
    "LBTESTCD": "ALT",
    "LBTEST": "Alanine Aminotransferase",
    "LBCAT": "CHEMISTRY",
    "LBORRES": "29",
    "LBORRESU": "U/L",
    "LBORNRLO": "6",
    "LBORNRHI": "35",
    "LBSTRESC": "29",
    "LBSTRESN": 29.0,
    "LBSTRESU": "U/L",
    "LBSTNRLO": 6.0,
    "LBSTNRHI": 35.0,
    "LBNRIND": "NORMAL",
    "LBBLFL": "",
    "VISITNUM": 5.0,
    "VISIT": "WEEK 4",
    "VISITDY": 28.0,
    "LBDTC": "2013-08-14T13:24",
    "LBDY": 27.0
  },
  {
    "STUDYID": "CDISCPILOT01",
    "DOMAIN": "LB",
    "USUBJID": "01-701-1028",
    "LBSEQ": 105.0,
    "LBTESTCD": "ALT",
    "LBTEST": "Alanine Aminotransferase",
    "LBCAT": "CHEMISTRY",
    "LBORRES": "32",
    "LBORRESU": "U/L",
    "LBORNRLO": "6",
    "LBORNRHI": "35",
    "LBSTRESC": "32",
    "LBSTRESN": 32.0,
    "LBSTRESU": "U/L",
    "LBSTNRLO": 6.0,
    "LBSTNRHI": 35.0,
    "LBNRIND": "NORMAL",
    "LBBLFL": "",
    "VISITNUM": 7.0,
    "VISIT": "WEEK 6",
    "VISITDY": 42.0,
    "LBDTC": "2013-08-29T11:54",
    "LBDY": 42.0
  },
  {
    "STUDYID": "CDISCPILOT01",
    "DOMAIN": "LB",
    "USUBJID": "01-701-1028",
    "LBSEQ": 135.0,
    "LBTESTCD": "ALT",
    "LBTEST": "Alanine Aminotransferase",
    "LBCAT": "CHEMISTRY",
    "LBORRES": "33",
    "LBORRESU": "U/L",
    "LBORNRLO": "6",
    "LBORNRHI": "35",
    "LBSTRESC": "33",
    "LBSTRESN": 33.0,
    "LBSTRESU": "U/L",
    "LBSTNRLO": 6.0,
    "LBSTNRHI": 35.0,
    "LBNRIND": "NORMAL",
    "LBBLFL": "",
    "VISITNUM": 8.0,
    "VISIT": "WEEK 8",
    "VISITDY": 56.0,
    "LBDTC": "2013-09-10T09:13",
    "LBDY": 54.0
  },
  {
    "STUDYID": "CDISCPILOT01",
    "DOMAIN": "LB",
    "USUBJID": "01-701-1028",
    "LBSEQ": 165.0,
    "LBTESTCD": "ALT",
    "LBTEST": "Alanine Aminotransferase",
    "LBCAT": "CHEMISTRY",
    "LBORRES": "29",
    "LBORRESU": "U/L",
    "LBORNRLO": "6",
    "LBORNRHI": "35",
    "LBSTRESC": "29",
    "LBSTRESN": 29.0,
    "LBSTRESU": "U/L",
    "LBSTNRLO": 6.0,
    "LBSTNRHI": 35.0,
    "LBNRIND": "NORMAL",
    "LBBLFL": "",
    "VISITNUM": 9.0,
    "VISIT": "WEEK 12",
    "VISITDY": 84.0,
    "LBDTC": "2013-10-09T08:42",
    "LBDY": 83.0
  },
  {
    "STUDYID": "CDISCPILOT01",
    "DOMAIN": "LB",
    "USUBJID": "01-701-1028",
    "LBSEQ": 200.0,
    "LBTESTCD": "ALT",
    "LBTEST": "Alanine Aminotransferase",
    "LBCAT": "CHEMISTRY",
    "LBORRES": "24",
    "LBORRESU": "U/L",
    "LBORNRLO": "6",
    "LBORNRHI": "35",
    "LBSTRESC": "24",
    "LBSTRESN": 24.0,
    "LBSTRESU": "U/L",
    "LBSTNRLO": 6.0,
    "LBSTNRHI": 35.0,
    "LBNRIND": "NORMAL",
    "LBBLFL": "",
    "VISITNUM": 10.0,
    "VISIT": "WEEK 16",
    "VISITDY": 112.0,
    "LBDTC": "2013-11-06T10:08",
    "LBDY": 111.0
  },
  {
    "STUDYID": "CDISCPILOT01",
    "DOMAIN": "LB",
    "USUBJID": "01-701-1028",
    "LBSEQ": 232.0,
    "LBTESTCD": "ALT",
    "LBTEST": "Alanine Aminotransferase",
    "LBCAT": "CHEMISTRY",
    "LBORRES": "22",
    "LBORRESU": "U/L",
    "LBORNRLO": "6",
    "LBORNRHI": "35",
    "LBSTRESC": "22",
    "LBSTRESN": 22.0,
    "LBSTRESU": "U/L",
    "LBSTNRLO": 6.0,
    "LBSTNRHI": 35.0,
    "LBNRIND": "NORMAL",
    "LBBLFL": "",
    "VISITNUM": 11.0,
    "VISIT": "WEEK 20",
    "VISITDY": 140.0,
    "LBDTC": "2013-12-04T15:10",
    "LBDY": 139.0
  },
  {
    "STUDYID": "CDISCPILOT01",
    "DOMAIN": "LB",
    "USUBJID": "01-701-1028",
    "LBSEQ": 263.0,
    "LBTESTCD": "ALT",
    "LBTEST": "Alanine Aminotransferase",
    "LBCAT": "CHEMISTRY",
    "LBORRES": "24",
    "LBORRESU": "U/L",
    "LBORNRLO": "6",
    "LBORNRHI": "35",
    "LBSTRESC": "24",
    "LBSTRESN": 24.0,
    "LBSTRESU": "U/L",
    "LBSTNRLO": 6.0,
    "LBSTNRHI": 35.0,
    "LBNRIND": "NORMAL",
    "LBBLFL": "",
    "VISITNUM": 12.0,
    "VISIT": "WEEK 24",
    "VISITDY": 168.0,
    "LBDTC": "2014-01-06T10:00",
    "LBDY": 172.0
  },
  {
    "STUDYID": "CDISCPILOT01",
    "DOMAIN": "LB",
    "USUBJID": "01-701-1028",
    "LBSEQ": 300.0,
    "LBTESTCD": "ALT",
    "LBTEST": "Alanine Aminotransferase",
    "LBCAT": "CHEMISTRY",
    "LBORRES": "26",
    "LBORRESU": "U/L",
    "LBORNRLO": "6",
    "LBORNRHI": "35",
    "LBSTRESC": "26",
    "LBSTRESN": 26.0,
    "LBSTRESU": "U/L",
    "LBSTNRLO": 6.0,
    "LBSTNRHI": 35.0,
    "LBNRIND": "NORMAL",
    "LBBLFL": "",
    "VISITNUM": 13.0,
    "VISIT": "WEEK 26",
    "VISITDY": 182.0,
    "LBDTC": "2014-01-14T11:10",
    "LBDY": 180.0
  },
  {
    "STUDYID": "CDISCPILOT01",
    "DOMAIN": "LB",
    "USUBJID": "01-701-1028",
    "LBSEQ": 4.0,
    "LBTESTCD": "AST",
    "LBTEST": "Aspartate Aminotransferase",
    "LBCAT": "CHEMISTRY",
    "LBORRES": "24",
    "LBORRESU": "U/L",
    "LBORNRLO": "11",
    "LBORNRHI": "36",
    "LBSTRESC": "24",
    "LBSTRESN": 24.0,
    "LBSTRESU": "U/L",
    "LBSTNRLO": 11.0,
    "LBSTNRHI": 36.0,
    "LBNRIND": "NORMAL",
    "LBBLFL": "Y",
    "VISITNUM": 1.0,
    "VISIT": "SCREENING 1",
    "VISITDY": -7.0,
    "LBDTC": "2013-07-11T12:02",
    "LBDY": -8.0
  },
  {
    "STUDYID": "CDISCPILOT01",
    "DOMAIN": "LB",
    "USUBJID": "01-701-1028",
    "LBSEQ": 41.0,
    "LBTESTCD": "AST",
    "LBTEST": "Aspartate Aminotransferase",
    "LBCAT": "CHEMISTRY",
    "LBORRES": "23",
    "LBORRESU": "U/L",
    "LBORNRLO": "11",
    "LBORNRHI": "36",
    "LBSTRESC": "23",
    "LBSTRESN": 23.0,
    "LBSTRESU": "U/L",
    "LBSTNRLO": 11.0,
    "LBSTNRHI": 36.0,
    "LBNRIND": "NORMAL",
    "LBBLFL": "",
    "VISITNUM": 4.0,
    "VISIT": "WEEK 2",
    "VISITDY": 14.0,
    "LBDTC": "2013-08-01T09:15",
    "LBDY": 14.0
  },
  {
    "STUDYID": "CDISCPILOT01",
    "DOMAIN": "LB",
    "USUBJID": "01-701-1028",
    "LBSEQ": 76.0,
    "LBTESTCD": "AST",
    "LBTEST": "Aspartate Aminotransferase",
    "LBCAT": "CHEMISTRY",
    "LBORRES": "24",
    "LBORRESU": "U/L",
    "LBORNRLO": "11",
    "LBORNRHI": "36",
    "LBSTRESC": "24",
    "LBSTRESN": 24.0,
    "LBSTRESU": "U/L",
    "LBSTNRLO": 11.0,
    "LBSTNRHI": 36.0,
    "LBNRIND": "NORMAL",
    "LBBLFL": "",
    "VISITNUM": 5.0,
    "VISIT": "WEEK 4",
    "VISITDY": 28.0,
    "LBDTC": "2013-08-14T13:24",
    "LBDY": 27.0
  },
  {
    "STUDYID": "CDISCPILOT01",
    "DOMAIN": "LB",
    "USUBJID": "01-701-1028",
    "LBSEQ": 106.0,
    "LBTESTCD": "AST",
    "LBTEST": "Aspartate Aminotransferase",
    "LBCAT": "CHEMISTRY",
    "LBORRES": "26",
    "LBORRESU": "U/L",
    "LBORNRLO": "11",
    "LBORNRHI": "36",
    "LBSTRESC": "26",
    "LBSTRESN": 26.0,
    "LBSTRESU": "U/L",
    "LBSTNRLO": 11.0,
    "LBSTNRHI": 36.0,
    "LBNRIND": "NORMAL",
    "LBBLFL": "",
    "VISITNUM": 7.0,
    "VISIT": "WEEK 6",
    "VISITDY": 42.0,
    "LBDTC": "2013-08-29T11:54",
    "LBDY": 42.0
  },
  {
    "STUDYID": "CDISCPILOT01",
    "DOMAIN": "LB",
    "USUBJID": "01-701-1028",
    "LBSEQ": 136.0,
    "LBTESTCD": "AST",
    "LBTEST": "Aspartate Aminotransferase",
    "LBCAT": "CHEMISTRY",
    "LBORRES": "28",
    "LBORRESU": "U/L",
    "LBORNRLO": "11",
    "LBORNRHI": "36",
    "LBSTRESC": "28",
    "LBSTRESN": 28.0,
    "LBSTRESU": "U/L",
    "LBSTNRLO": 11.0,
    "LBSTNRHI": 36.0,
    "LBNRIND": "NORMAL",
    "LBBLFL": "",
    "VISITNUM": 8.0,
    "VISIT": "WEEK 8",
    "VISITDY": 56.0,
    "LBDTC": "2013-09-10T09:13",
    "LBDY": 54.0
  },
  {
    "STUDYID": "CDISCPILOT01",
    "DOMAIN": "LB",
    "USUBJID": "01-701-1028",
    "LBSEQ": 166.0,
    "LBTESTCD": "AST",
    "LBTEST": "Aspartate Aminotransferase",
    "LBCAT": "CHEMISTRY",
    "LBORRES": "28",
    "LBORRESU": "U/L",
    "LBORNRLO": "11",
    "LBORNRHI": "36",
    "LBSTRESC": "28",
    "LBSTRESN": 28.0,
    "LBSTRESU": "U/L",
    "LBSTNRLO": 11.0,
    "LBSTNRHI": 36.0,
    "LBNRIND": "NORMAL",
    "LBBLFL": "",
    "VISITNUM": 9.0,
    "VISIT": "WEEK 12",
    "VISITDY": 84.0,
    "LBDTC": "2013-10-09T08:42",
    "LBDY": 83.0
  },
  {
    "STUDYID": "CDISCPILOT01",
    "DOMAIN": "LB",
    "USUBJID": "01-701-1028",
    "LBSEQ": 202.0,
    "LBTESTCD": "AST",
    "LBTEST": "Aspartate Aminotransferase",
    "LBCAT": "CHEMISTRY",
    "LBORRES": "18",
    "LBORRESU": "U/L",
    "LBORNRLO": "11",
    "LBORNRHI": "36",
    "LBSTRESC": "18",
    "LBSTRESN": 18.0,
    "LBSTRESU": "U/L",
    "LBSTNRLO": 11.0,
    "LBSTNRHI": 36.0,
    "LBNRIND": "NORMAL",
    "LBBLFL": "",
    "VISITNUM": 10.0,
    "VISIT": "WEEK 16",
    "VISITDY": 112.0,
    "LBDTC": "2013-11-06T10:08",
    "LBDY": 111.0
  },
  {
    "STUDYID": "CDISCPILOT01",
    "DOMAIN": "LB",
    "USUBJID": "01-701-1028",
    "LBSEQ": 234.0,
    "LBTESTCD": "AST",
    "LBTEST": "Aspartate Aminotransferase",
    "LBCAT": "CHEMISTRY",
    "LBORRES": "21",
    "LBORRESU": "U/L",
    "LBORNRLO": "11",
    "LBORNRHI": "36",
    "LBSTRESC": "21",
    "LBSTRESN": 21.0,
    "LBSTRESU": "U/L",
    "LBSTNRLO": 11.0,
    "LBSTNRHI": 36.0,
    "LBNRIND": "NORMAL",
    "LBBLFL": "",
    "VISITNUM": 11.0,
    "VISIT": "WEEK 20",
    "VISITDY": 140.0,
    "LBDTC": "2013-12-04T15:10",
    "LBDY": 139.0
  },
  {
    "STUDYID": "CDISCPILOT01",
    "DOMAIN": "LB",
    "USUBJID": "01-701-1028",
    "LBSEQ": 264.0,
    "LBTESTCD": "AST",
    "LBTEST": "Aspartate Aminotransferase",
    "LBCAT": "CHEMISTRY",
    "LBORRES": "23",
    "LBORRESU": "U/L",
    "LBORNRLO": "11",
    "LBORNRHI": "36",
    "LBSTRESC": "23",
    "LBSTRESN": 23.0,
    "LBSTRESU": "U/L",
    "LBSTNRLO": 11.0,
    "LBSTNRHI": 36.0,
    "LBNRIND": "NORMAL",
    "LBBLFL": "",
    "VISITNUM": 12.0,
    "VISIT": "WEEK 24",
    "VISITDY": 168.0,
    "LBDTC": "2014-01-06T10:00",
    "LBDY": 172.0
  },
  {
    "STUDYID": "CDISCPILOT01",
    "DOMAIN": "LB",
    "USUBJID": "01-701-1028",
    "LBSEQ": 301.0,
    "LBTESTCD": "AST",
    "LBTEST": "Aspartate Aminotransferase",
    "LBCAT": "CHEMISTRY",
    "LBORRES": "24",
    "LBORRESU": "U/L",
    "LBORNRLO": "11",
    "LBORNRHI": "36",
    "LBSTRESC": "24",
    "LBSTRESN": 24.0,
    "LBSTRESU": "U/L",
    "LBSTNRLO": 11.0,
    "LBSTNRHI": 36.0,
    "LBNRIND": "NORMAL",
    "LBBLFL": "",
    "VISITNUM": 13.0,
    "VISIT": "WEEK 26",
    "VISITDY": 182.0,
    "LBDTC": "2014-01-14T11:10",
    "LBDY": 180.0
  },
  {
    "STUDYID": "CDISCPILOT01",
    "DOMAIN": "LB",
    "USUBJID": "01-701-1033",
    "LBSEQ": 2.0,
    "LBTESTCD": "ALP",
    "LBTEST": "Alkaline Phosphatase",
    "LBCAT": "CHEMISTRY",
    "LBORRES": "67",
    "LBORRESU": "U/L",
    "LBORNRLO": "35",
    "LBORNRHI": "115",
    "LBSTRESC": "67",
    "LBSTRESN": 67.0,
    "LBSTRESU": "U/L",
    "LBSTNRLO": 35.0,
    "LBSTNRHI": 115.0,
    "LBNRIND": "NORMAL",
    "LBBLFL": "Y",
    "VISITNUM": 1.0,
    "VISIT": "SCREENING 1",
    "VISITDY": -7.0,
    "LBDTC": "2014-03-10T12:31",
    "LBDY": -8.0
  },
  {
    "STUDYID": "CDISCPILOT01",
    "DOMAIN": "LB",
    "USUBJID": "01-701-1033",
    "LBSEQ": 39.0,
    "LBTESTCD": "ALP",
    "LBTEST": "Alkaline Phosphatase",
    "LBCAT": "CHEMISTRY",
    "LBORRES": "89",
    "LBORRESU": "U/L",
    "LBORNRLO": "35",
    "LBORNRHI": "115",
    "LBSTRESC": "89",
    "LBSTRESN": 89.0,
    "LBSTRESU": "U/L",
    "LBSTNRLO": 35.0,
    "LBSTNRHI": 115.0,
    "LBNRIND": "NORMAL",
    "LBBLFL": "",
    "VISITNUM": 4.0,
    "VISIT": "WEEK 2",
    "VISITDY": 14.0,
    "LBDTC": "2014-04-01T08:55",
    "LBDY": 15.0
  },
  {
    "STUDYID": "CDISCPILOT01",
    "DOMAIN": "LB",
    "USUBJID": "01-701-1033",
    "LBSEQ": 74.0,
    "LBTESTCD": "ALP",
    "LBTEST": "Alkaline Phosphatase",
    "LBCAT": "CHEMISTRY",
    "LBORRES": "76",
    "LBORRESU": "U/L",
    "LBORNRLO": "35",
    "LBORNRHI": "115",
    "LBSTRESC": "76",
    "LBSTRESN": 76.0,
    "LBSTRESU": "U/L",
    "LBSTNRLO": 35.0,
    "LBSTNRHI": 115.0,
    "LBNRIND": "NORMAL",
    "LBBLFL": "",
    "VISITNUM": 5.0,
    "VISIT": "WEEK 4",
    "VISITDY": 28.0,
    "LBDTC": "2014-04-14T10:38",
    "LBDY": 28.0
  },
  {
    "STUDYID": "CDISCPILOT01",
    "DOMAIN": "LB",
    "USUBJID": "01-701-1033",
    "LBSEQ": 3.0,
    "LBTESTCD": "ALT",
    "LBTEST": "Alanine Aminotransferase",
    "LBCAT": "CHEMISTRY",
    "LBORRES": "16",
    "LBORRESU": "U/L",
    "LBORNRLO": "6",
    "LBORNRHI": "35",
    "LBSTRESC": "16",
    "LBSTRESN": 16.0,
    "LBSTRESU": "U/L",
    "LBSTNRLO": 6.0,
    "LBSTNRHI": 35.0,
    "LBNRIND": "NORMAL",
    "LBBLFL": "Y",
    "VISITNUM": 1.0,
    "VISIT": "SCREENING 1",
    "VISITDY": -7.0,
    "LBDTC": "2014-03-10T12:31",
    "LBDY": -8.0
  },
  {
    "STUDYID": "CDISCPILOT01",
    "DOMAIN": "LB",
    "USUBJID": "01-701-1033",
    "LBSEQ": 40.0,
    "LBTESTCD": "ALT",
    "LBTEST": "Alanine Aminotransferase",
    "LBCAT": "CHEMISTRY",
    "LBORRES": "35",
    "LBORRESU": "U/L",
    "LBORNRLO": "6",
    "LBORNRHI": "35",
    "LBSTRESC": "35",
    "LBSTRESN": 35.0,
    "LBSTRESU": "U/L",
    "LBSTNRLO": 6.0,
    "LBSTNRHI": 35.0,
    "LBNRIND": "NORMAL",
    "LBBLFL": "",
    "VISITNUM": 4.0,
    "VISIT": "WEEK 2",
    "VISITDY": 14.0,
    "LBDTC": "2014-04-01T08:55",
    "LBDY": 15.0
  },
  {
    "STUDYID": "CDISCPILOT01",
    "DOMAIN": "LB",
    "USUBJID": "01-701-1033",
    "LBSEQ": 75.0,
    "LBTESTCD": "ALT",
    "LBTEST": "Alanine Aminotransferase",
    "LBCAT": "CHEMISTRY",
    "LBORRES": "14",
    "LBORRESU": "U/L",
    "LBORNRLO": "6",
    "LBORNRHI": "35",
    "LBSTRESC": "14",
    "LBSTRESN": 14.0,
    "LBSTRESU": "U/L",
    "LBSTNRLO": 6.0,
    "LBSTNRHI": 35.0,
    "LBNRIND": "NORMAL",
    "LBBLFL": "",
    "VISITNUM": 5.0,
    "VISIT": "WEEK 4",
    "VISITDY": 28.0,
    "LBDTC": "2014-04-14T10:38",
    "LBDY": 28.0
  },
  {
    "STUDYID": "CDISCPILOT01",
    "DOMAIN": "LB",
    "USUBJID": "01-701-1033",
    "LBSEQ": 4.0,
    "LBTESTCD": "AST",
    "LBTEST": "Aspartate Aminotransferase",
    "LBCAT": "CHEMISTRY",
    "LBORRES": "20",
    "LBORRESU": "U/L",
    "LBORNRLO": "11",
    "LBORNRHI": "36",
    "LBSTRESC": "20",
    "LBSTRESN": 20.0,
    "LBSTRESU": "U/L",
    "LBSTNRLO": 11.0,
    "LBSTNRHI": 36.0,
    "LBNRIND": "NORMAL",
    "LBBLFL": "Y",
    "VISITNUM": 1.0,
    "VISIT": "SCREENING 1",
    "VISITDY": -7.0,
    "LBDTC": "2014-03-10T12:31",
    "LBDY": -8.0
  },
  {
    "STUDYID": "CDISCPILOT01",
    "DOMAIN": "LB",
    "USUBJID": "01-701-1033",
    "LBSEQ": 41.0,
    "LBTESTCD": "AST",
    "LBTEST": "Aspartate Aminotransferase",
    "LBCAT": "CHEMISTRY",
    "LBORRES": "26",
    "LBORRESU": "U/L",
    "LBORNRLO": "11",
    "LBORNRHI": "36",
    "LBSTRESC": "26",
    "LBSTRESN": 26.0,
    "LBSTRESU": "U/L",
    "LBSTNRLO": 11.0,
    "LBSTNRHI": 36.0,
    "LBNRIND": "NORMAL",
    "LBBLFL": "",
    "VISITNUM": 4.0,
    "VISIT": "WEEK 2",
    "VISITDY": 14.0,
    "LBDTC": "2014-04-01T08:55",
    "LBDY": 15.0
  },
  {
    "STUDYID": "CDISCPILOT01",
    "DOMAIN": "LB",
    "USUBJID": "01-701-1033",
    "LBSEQ": 76.0,
    "LBTESTCD": "AST",
    "LBTEST": "Aspartate Aminotransferase",
    "LBCAT": "CHEMISTRY",
    "LBORRES": "20",
    "LBORRESU": "U/L",
    "LBORNRLO": "11",
    "LBORNRHI": "36",
    "LBSTRESC": "20",
    "LBSTRESN": 20.0,
    "LBSTRESU": "U/L",
    "LBSTNRLO": 11.0,
    "LBSTNRHI": 36.0,
    "LBNRIND": "NORMAL",
    "LBBLFL": "",
    "VISITNUM": 5.0,
    "VISIT": "WEEK 4",
    "VISITDY": 28.0,
    "LBDTC": "2014-04-14T10:38",
    "LBDY": 28.0
  },
  {
    "STUDYID": "CDISCPILOT01",
    "DOMAIN": "LB",
    "USUBJID": "01-701-1034",
    "LBSEQ": 2.0,
    "LBTESTCD": "ALP",
    "LBTEST": "Alkaline Phosphatase",
    "LBCAT": "CHEMISTRY",
    "LBORRES": "41",
    "LBORRESU": "U/L",
    "LBORNRLO": "35",
    "LBORNRHI": "115",
    "LBSTRESC": "41",
    "LBSTRESN": 41.0,
    "LBSTRESU": "U/L",
    "LBSTNRLO": 35.0,
    "LBSTNRHI": 115.0,
    "LBNRIND": "NORMAL",
    "LBBLFL": "Y",
    "VISITNUM": 1.0,
    "VISIT": "SCREENING 1",
    "VISITDY": -7.0,
    "LBDTC": "2014-06-24T15:30",
    "LBDY": -7.0
  },
  {
    "STUDYID": "CDISCPILOT01",
    "DOMAIN": "LB",
    "USUBJID": "01-701-1034",
    "LBSEQ": 40.0,
    "LBTESTCD": "ALP",
    "LBTEST": "Alkaline Phosphatase",
    "LBCAT": "CHEMISTRY",
    "LBORRES": "34",
    "LBORRESU": "U/L",
    "LBORNRLO": "35",
    "LBORNRHI": "115",
    "LBSTRESC": "34",
    "LBSTRESN": 34.0,
    "LBSTRESU": "U/L",
    "LBSTNRLO": 35.0,
    "LBSTNRHI": 115.0,
    "LBNRIND": "LOW",
    "LBBLFL": "",
    "VISITNUM": 4.0,
    "VISIT": "WEEK 2",
    "VISITDY": 14.0,
    "LBDTC": "2014-07-15T09:25",
    "LBDY": 15.0
  },
  {
    "STUDYID": "CDISCPILOT01",
    "DOMAIN": "LB",
    "USUBJID": "01-701-1034",
    "LBSEQ": 76.0,
    "LBTESTCD": "ALP",
    "LBTEST": "Alkaline Phosphatase",
    "LBCAT": "CHEMISTRY",
    "LBORRES": "36",
    "LBORRESU": "U/L",
    "LBORNRLO": "35",
    "LBORNRHI": "115",
    "LBSTRESC": "36",
    "LBSTRESN": 36.0,
    "LBSTRESU": "U/L",
    "LBSTNRLO": 35.0,
    "LBSTNRHI": 115.0,
    "LBNRIND": "NORMAL",
    "LBBLFL": "",
    "VISITNUM": 5.0,
    "VISIT": "WEEK 4",
    "VISITDY": 28.0,
    "LBDTC": "2014-07-29T08:40",
    "LBDY": 29.0
  },
  {
    "STUDYID": "CDISCPILOT01",
    "DOMAIN": "LB",
    "USUBJID": "01-701-1034",
    "LBSEQ": 107.0,
    "LBTESTCD": "ALP",
    "LBTEST": "Alkaline Phosphatase",
    "LBCAT": "CHEMISTRY",
    "LBORRES": "33",
    "LBORRESU": "U/L",
    "LBORNRLO": "35",
    "LBORNRHI": "115",
    "LBSTRESC": "33",
    "LBSTRESN": 33.0,
    "LBSTRESU": "U/L",
    "LBSTNRLO": 35.0,
    "LBSTNRHI": 115.0,
    "LBNRIND": "LOW",
    "LBBLFL": "",
    "VISITNUM": 7.0,
    "VISIT": "WEEK 6",
    "VISITDY": 42.0,
    "LBDTC": "2014-08-11T13:15",
    "LBDY": 42.0
  },
  {
    "STUDYID": "CDISCPILOT01",
    "DOMAIN": "LB",
    "USUBJID": "01-701-1034",
    "LBSEQ": 138.0,
    "LBTESTCD": "ALP",
    "LBTEST": "Alkaline Phosphatase",
    "LBCAT": "CHEMISTRY",
    "LBORRES": "29",
    "LBORRESU": "U/L",
    "LBORNRLO": "35",
    "LBORNRHI": "115",
    "LBSTRESC": "29",
    "LBSTRESN": 29.0,
    "LBSTRESU": "U/L",
    "LBSTNRLO": 35.0,
    "LBSTNRHI": 115.0,
    "LBNRIND": "LOW",
    "LBBLFL": "",
    "VISITNUM": 8.0,
    "VISIT": "WEEK 8",
    "VISITDY": 56.0,
    "LBDTC": "2014-08-26T09:57",
    "LBDY": 57.0
  },
  {
    "STUDYID": "CDISCPILOT01",
    "DOMAIN": "LB",
    "USUBJID": "01-701-1034",
    "LBSEQ": 168.0,
    "LBTESTCD": "ALP",
    "LBTEST": "Alkaline Phosphatase",
    "LBCAT": "CHEMISTRY",
    "LBORRES": "34",
    "LBORRESU": "U/L",
    "LBORNRLO": "35",
    "LBORNRHI": "115",
    "LBSTRESC": "34",
    "LBSTRESN": 34.0,
    "LBSTRESU": "U/L",
    "LBSTNRLO": 35.0,
    "LBSTNRHI": 115.0,
    "LBNRIND": "LOW",
    "LBBLFL": "",
    "VISITNUM": 9.0,
    "VISIT": "WEEK 12",
    "VISITDY": 84.0,
    "LBDTC": "2014-09-25T15:40",
    "LBDY": 87.0
  },
  {
    "STUDYID": "CDISCPILOT01",
    "DOMAIN": "LB",
    "USUBJID": "01-701-1034",
    "LBSEQ": 203.0,
    "LBTESTCD": "ALP",
    "LBTEST": "Alkaline Phosphatase",
    "LBCAT": "CHEMISTRY",
    "LBORRES": "34",
    "LBORRESU": "U/L",
    "LBORNRLO": "35",
    "LBORNRHI": "115",
    "LBSTRESC": "34",
    "LBSTRESN": 34.0,
    "LBSTRESU": "U/L",
    "LBSTNRLO": 35.0,
    "LBSTNRHI": 115.0,
    "LBNRIND": "LOW",
    "LBBLFL": "",
    "VISITNUM": 10.0,
    "VISIT": "WEEK 16",
    "VISITDY": 112.0,
    "LBDTC": "2014-10-21T09:52",
    "LBDY": 113.0
  },
  {
    "STUDYID": "CDISCPILOT01",
    "DOMAIN": "LB",
    "USUBJID": "01-701-1034",
    "LBSEQ": 234.0,
    "LBTESTCD": "ALP",
    "LBTEST": "Alkaline Phosphatase",
    "LBCAT": "CHEMISTRY",
    "LBORRES": "31",
    "LBORRESU": "U/L",
    "LBORNRLO": "35",
    "LBORNRHI": "115",
    "LBSTRESC": "31",
    "LBSTRESN": 31.0,
    "LBSTRESU": "U/L",
    "LBSTNRLO": 35.0,
    "LBSTNRHI": 115.0,
    "LBNRIND": "LOW",
    "LBBLFL": "",
    "VISITNUM": 11.0,
    "VISIT": "WEEK 20",
    "VISITDY": 140.0,
    "LBDTC": "2014-11-18T12:23",
    "LBDY": 141.0
  },
  {
    "STUDYID": "CDISCPILOT01",
    "DOMAIN": "LB",
    "USUBJID": "01-701-1034",
    "LBSEQ": 265.0,
    "LBTESTCD": "ALP",
    "LBTEST": "Alkaline Phosphatase",
    "LBCAT": "CHEMISTRY",
    "LBORRES": "40",
    "LBORRESU": "U/L",
    "LBORNRLO": "35",
    "LBORNRHI": "115",
    "LBSTRESC": "40",
    "LBSTRESN": 40.0,
    "LBSTRESU": "U/L",
    "LBSTNRLO": 35.0,
    "LBSTNRHI": 115.0,
    "LBNRIND": "NORMAL",
    "LBBLFL": "",
    "VISITNUM": 12.0,
    "VISIT": "WEEK 24",
    "VISITDY": 168.0,
    "LBDTC": "2014-12-17T14:27",
    "LBDY": 170.0
  },
  {
    "STUDYID": "CDISCPILOT01",
    "DOMAIN": "LB",
    "USUBJID": "01-701-1034",
    "LBSEQ": 301.0,
    "LBTESTCD": "ALP",
    "LBTEST": "Alkaline Phosphatase",
    "LBCAT": "CHEMISTRY",
    "LBORRES": "27",
    "LBORRESU": "U/L",
    "LBORNRLO": "35",
    "LBORNRHI": "115",
    "LBSTRESC": "27",
    "LBSTRESN": 27.0,
    "LBSTRESU": "U/L",
    "LBSTNRLO": 35.0,
    "LBSTNRHI": 115.0,
    "LBNRIND": "LOW",
    "LBBLFL": "",
    "VISITNUM": 13.0,
    "VISIT": "WEEK 26",
    "VISITDY": 182.0,
    "LBDTC": "2014-12-30T09:50",
    "LBDY": 183.0
  },
  {
    "STUDYID": "CDISCPILOT01",
    "DOMAIN": "LB",
    "USUBJID": "01-701-1034",
    "LBSEQ": 3.0,
    "LBTESTCD": "ALT",
    "LBTEST": "Alanine Aminotransferase",
    "LBCAT": "CHEMISTRY",
    "LBORRES": "15",
    "LBORRESU": "U/L",
    "LBORNRLO": "6",
    "LBORNRHI": "32",
    "LBSTRESC": "15",
    "LBSTRESN": 15.0,
    "LBSTRESU": "U/L",
    "LBSTNRLO": 6.0,
    "LBSTNRHI": 32.0,
    "LBNRIND": "NORMAL",
    "LBBLFL": "Y",
    "VISITNUM": 1.0,
    "VISIT": "SCREENING 1",
    "VISITDY": -7.0,
    "LBDTC": "2014-06-24T15:30",
    "LBDY": -7.0
  },
  {
    "STUDYID": "CDISCPILOT01",
    "DOMAIN": "LB",
    "USUBJID": "01-701-1034",
    "LBSEQ": 41.0,
    "LBTESTCD": "ALT",
    "LBTEST": "Alanine Aminotransferase",
    "LBCAT": "CHEMISTRY",
    "LBORRES": "19",
    "LBORRESU": "U/L",
    "LBORNRLO": "6",
    "LBORNRHI": "32",
    "LBSTRESC": "19",
    "LBSTRESN": 19.0,
    "LBSTRESU": "U/L",
    "LBSTNRLO": 6.0,
    "LBSTNRHI": 32.0,
    "LBNRIND": "NORMAL",
    "LBBLFL": "",
    "VISITNUM": 4.0,
    "VISIT": "WEEK 2",
    "VISITDY": 14.0,
    "LBDTC": "2014-07-15T09:25",
    "LBDY": 15.0
  },
  {
    "STUDYID": "CDISCPILOT01",
    "DOMAIN": "LB",
    "USUBJID": "01-701-1034",
    "LBSEQ": 77.0,
    "LBTESTCD": "ALT",
    "LBTEST": "Alanine Aminotransferase",
    "LBCAT": "CHEMISTRY",
    "LBORRES": "21",
    "LBORRESU": "U/L",
    "LBORNRLO": "6",
    "LBORNRHI": "32",
    "LBSTRESC": "21",
    "LBSTRESN": 21.0,
    "LBSTRESU": "U/L",
    "LBSTNRLO": 6.0,
    "LBSTNRHI": 32.0,
    "LBNRIND": "NORMAL",
    "LBBLFL": "",
    "VISITNUM": 5.0,
    "VISIT": "WEEK 4",
    "VISITDY": 28.0,
    "LBDTC": "2014-07-29T08:40",
    "LBDY": 29.0
  },
  {
    "STUDYID": "CDISCPILOT01",
    "DOMAIN": "LB",
    "USUBJID": "01-701-1034",
    "LBSEQ": 108.0,
    "LBTESTCD": "ALT",
    "LBTEST": "Alanine Aminotransferase",
    "LBCAT": "CHEMISTRY",
    "LBORRES": "15",
    "LBORRESU": "U/L",
    "LBORNRLO": "6",
    "LBORNRHI": "32",
    "LBSTRESC": "15",
    "LBSTRESN": 15.0,
    "LBSTRESU": "U/L",
    "LBSTNRLO": 6.0,
    "LBSTNRHI": 32.0,
    "LBNRIND": "NORMAL",
    "LBBLFL": "",
    "VISITNUM": 7.0,
    "VISIT": "WEEK 6",
    "VISITDY": 42.0,
    "LBDTC": "2014-08-11T13:15",
    "LBDY": 42.0
  },
  {
    "STUDYID": "CDISCPILOT01",
    "DOMAIN": "LB",
    "USUBJID": "01-701-1034",
    "LBSEQ": 139.0,
    "LBTESTCD": "ALT",
    "LBTEST": "Alanine Aminotransferase",
    "LBCAT": "CHEMISTRY",
    "LBORRES": "24",
    "LBORRESU": "U/L",
    "LBORNRLO": "6",
    "LBORNRHI": "32",
    "LBSTRESC": "24",
    "LBSTRESN": 24.0,
    "LBSTRESU": "U/L",
    "LBSTNRLO": 6.0,
    "LBSTNRHI": 32.0,
    "LBNRIND": "NORMAL",
    "LBBLFL": "",
    "VISITNUM": 8.0,
    "VISIT": "WEEK 8",
    "VISITDY": 56.0,
    "LBDTC": "2014-08-26T09:57",
    "LBDY": 57.0
  },
  {
    "STUDYID": "CDISCPILOT01",
    "DOMAIN": "LB",
    "USUBJID": "01-701-1034",
    "LBSEQ": 169.0,
    "LBTESTCD": "ALT",
    "LBTEST": "Alanine Aminotransferase",
    "LBCAT": "CHEMISTRY",
    "LBORRES": "20",
    "LBORRESU": "U/L",
    "LBORNRLO": "6",
    "LBORNRHI": "32",
    "LBSTRESC": "20",
    "LBSTRESN": 20.0,
    "LBSTRESU": "U/L",
    "LBSTNRLO": 6.0,
    "LBSTNRHI": 32.0,
    "LBNRIND": "NORMAL",
    "LBBLFL": "",
    "VISITNUM": 9.0,
    "VISIT": "WEEK 12",
    "VISITDY": 84.0,
    "LBDTC": "2014-09-25T15:40",
    "LBDY": 87.0
  },
  {
    "STUDYID": "CDISCPILOT01",
    "DOMAIN": "LB",
    "USUBJID": "01-701-1034",
    "LBSEQ": 204.0,
    "LBTESTCD": "ALT",
    "LBTEST": "Alanine Aminotransferase",
    "LBCAT": "CHEMISTRY",
    "LBORRES": "21",
    "LBORRESU": "U/L",
    "LBORNRLO": "6",
    "LBORNRHI": "32",
    "LBSTRESC": "21",
    "LBSTRESN": 21.0,
    "LBSTRESU": "U/L",
    "LBSTNRLO": 6.0,
    "LBSTNRHI": 32.0,
    "LBNRIND": "NORMAL",
    "LBBLFL": "",
    "VISITNUM": 10.0,
    "VISIT": "WEEK 16",
    "VISITDY": 112.0,
    "LBDTC": "2014-10-21T09:52",
    "LBDY": 113.0
  },
  {
    "STUDYID": "CDISCPILOT01",
    "DOMAIN": "LB",
    "USUBJID": "01-701-1034",
    "LBSEQ": 235.0,
    "LBTESTCD": "ALT",
    "LBTEST": "Alanine Aminotransferase",
    "LBCAT": "CHEMISTRY",
    "LBORRES": "23",
    "LBORRESU": "U/L",
    "LBORNRLO": "6",
    "LBORNRHI": "32",
    "LBSTRESC": "23",
    "LBSTRESN": 23.0,
    "LBSTRESU": "U/L",
    "LBSTNRLO": 6.0,
    "LBSTNRHI": 32.0,
    "LBNRIND": "NORMAL",
    "LBBLFL": "",
    "VISITNUM": 11.0,
    "VISIT": "WEEK 20",
    "VISITDY": 140.0,
    "LBDTC": "2014-11-18T12:23",
    "LBDY": 141.0
  },
  {
    "STUDYID": "CDISCPILOT01",
    "DOMAIN": "LB",
    "USUBJID": "01-701-1034",
    "LBSEQ": 266.0,
    "LBTESTCD": "ALT",
    "LBTEST": "Alanine Aminotransferase",
    "LBCAT": "CHEMISTRY",
    "LBORRES": "15",
    "LBORRESU": "U/L",
    "LBORNRLO": "6",
    "LBORNRHI": "32",
    "LBSTRESC": "15",
    "LBSTRESN": 15.0,
    "LBSTRESU": "U/L",
    "LBSTNRLO": 6.0,
    "LBSTNRHI": 32.0,
    "LBNRIND": "NORMAL",
    "LBBLFL": "",
    "VISITNUM": 12.0,
    "VISIT": "WEEK 24",
    "VISITDY": 168.0,
    "LBDTC": "2014-12-17T14:27",
    "LBDY": 170.0
  },
  {
    "STUDYID": "CDISCPILOT01",
    "DOMAIN": "LB",
    "USUBJID": "01-701-1034",
    "LBSEQ": 302.0,
    "LBTESTCD": "ALT",
    "LBTEST": "Alanine Aminotransferase",
    "LBCAT": "CHEMISTRY",
    "LBORRES": "18",
    "LBORRESU": "U/L",
    "LBORNRLO": "6",
    "LBORNRHI": "32",
    "LBSTRESC": "18",
    "LBSTRESN": 18.0,
    "LBSTRESU": "U/L",
    "LBSTNRLO": 6.0,
    "LBSTNRHI": 32.0,
    "LBNRIND": "NORMAL",
    "LBBLFL": "",
    "VISITNUM": 13.0,
    "VISIT": "WEEK 26",
    "VISITDY": 182.0,
    "LBDTC": "2014-12-30T09:50",
    "LBDY": 183.0
  },
  {
    "STUDYID": "CDISCPILOT01",
    "DOMAIN": "LB",
    "USUBJID": "01-701-1034",
    "LBSEQ": 5.0,
    "LBTESTCD": "AST",
    "LBTEST": "Aspartate Aminotransferase",
    "LBCAT": "CHEMISTRY",
    "LBORRES": "23",
    "LBORRESU": "U/L",
    "LBORNRLO": "9",
    "LBORNRHI": "34",
    "LBSTRESC": "23",
    "LBSTRESN": 23.0,
    "LBSTRESU": "U/L",
    "LBSTNRLO": 9.0,
    "LBSTNRHI": 34.0,
    "LBNRIND": "NORMAL",
    "LBBLFL": "Y",
    "VISITNUM": 1.0,
    "VISIT": "SCREENING 1",
    "VISITDY": -7.0,
    "LBDTC": "2014-06-24T15:30",
    "LBDY": -7.0
  },
  {
    "STUDYID": "CDISCPILOT01",
    "DOMAIN": "LB",
    "USUBJID": "01-701-1034",
    "LBSEQ": 42.0,
    "LBTESTCD": "AST",
    "LBTEST": "Aspartate Aminotransferase",
    "LBCAT": "CHEMISTRY",
    "LBORRES": "23",
    "LBORRESU": "U/L",
    "LBORNRLO": "9",
    "LBORNRHI": "34",
    "LBSTRESC": "23",
    "LBSTRESN": 23.0,
    "LBSTRESU": "U/L",
    "LBSTNRLO": 9.0,
    "LBSTNRHI": 34.0,
    "LBNRIND": "NORMAL",
    "LBBLFL": "",
    "VISITNUM": 4.0,
    "VISIT": "WEEK 2",
    "VISITDY": 14.0,
    "LBDTC": "2014-07-15T09:25",
    "LBDY": 15.0
  },
  {
    "STUDYID": "CDISCPILOT01",
    "DOMAIN": "LB",
    "USUBJID": "01-701-1034",
    "LBSEQ": 79.0,
    "LBTESTCD": "AST",
    "LBTEST": "Aspartate Aminotransferase",
    "LBCAT": "CHEMISTRY",
    "LBORRES": "25",
    "LBORRESU": "U/L",
    "LBORNRLO": "9",
    "LBORNRHI": "34",
    "LBSTRESC": "25",
    "LBSTRESN": 25.0,
    "LBSTRESU": "U/L",
    "LBSTNRLO": 9.0,
    "LBSTNRHI": 34.0,
    "LBNRIND": "NORMAL",
    "LBBLFL": "",
    "VISITNUM": 5.0,
    "VISIT": "WEEK 4",
    "VISITDY": 28.0,
    "LBDTC": "2014-07-29T08:40",
    "LBDY": 29.0
  },
  {
    "STUDYID": "CDISCPILOT01",
    "DOMAIN": "LB",
    "USUBJID": "01-701-1034",
    "LBSEQ": 110.0,
    "LBTESTCD": "AST",
    "LBTEST": "Aspartate Aminotransferase",
    "LBCAT": "CHEMISTRY",
    "LBORRES": "19",
    "LBORRESU": "U/L",
    "LBORNRLO": "9",
    "LBORNRHI": "34",
    "LBSTRESC": "19",
    "LBSTRESN": 19.0,
    "LBSTRESU": "U/L",
    "LBSTNRLO": 9.0,
    "LBSTNRHI": 34.0,
    "LBNRIND": "NORMAL",
    "LBBLFL": "",
    "VISITNUM": 7.0,
    "VISIT": "WEEK 6",
    "VISITDY": 42.0,
    "LBDTC": "2014-08-11T13:15",
    "LBDY": 42.0
  },
  {
    "STUDYID": "CDISCPILOT01",
    "DOMAIN": "LB",
    "USUBJID": "01-701-1034",
    "LBSEQ": 140.0,
    "LBTESTCD": "AST",
    "LBTEST": "Aspartate Aminotransferase",
    "LBCAT": "CHEMISTRY",
    "LBORRES": "26",
    "LBORRESU": "U/L",
    "LBORNRLO": "9",
    "LBORNRHI": "34",
    "LBSTRESC": "26",
    "LBSTRESN": 26.0,
    "LBSTRESU": "U/L",
    "LBSTNRLO": 9.0,
    "LBSTNRHI": 34.0,
    "LBNRIND": "NORMAL",
    "LBBLFL": "",
    "VISITNUM": 8.0,
    "VISIT": "WEEK 8",
    "VISITDY": 56.0,
    "LBDTC": "2014-08-26T09:57",
    "LBDY": 57.0
  },
  {
    "STUDYID": "CDISCPILOT01",
    "DOMAIN": "LB",
    "USUBJID": "01-701-1034",
    "LBSEQ": 170.0,
    "LBTESTCD": "AST",
    "LBTEST": "Aspartate Aminotransferase",
    "LBCAT": "CHEMISTRY",
    "LBORRES": "23",
    "LBORRESU": "U/L",
    "LBORNRLO": "9",
    "LBORNRHI": "34",
    "LBSTRESC": "23",
    "LBSTRESN": 23.0,
    "LBSTRESU": "U/L",
    "LBSTNRLO": 9.0,
    "LBSTNRHI": 34.0,
    "LBNRIND": "NORMAL",
    "LBBLFL": "",
    "VISITNUM": 9.0,
    "VISIT": "WEEK 12",
    "VISITDY": 84.0,
    "LBDTC": "2014-09-25T15:40",
    "LBDY": 87.0
  },
  {
    "STUDYID": "CDISCPILOT01",
    "DOMAIN": "LB",
    "USUBJID": "01-701-1034",
    "LBSEQ": 205.0,
    "LBTESTCD": "AST",
    "LBTEST": "Aspartate Aminotransferase",
    "LBCAT": "CHEMISTRY",
    "LBORRES": "21",
    "LBORRESU": "U/L",
    "LBORNRLO": "9",
    "LBORNRHI": "34",
    "LBSTRESC": "21",
    "LBSTRESN": 21.0,
    "LBSTRESU": "U/L",
    "LBSTNRLO": 9.0,
    "LBSTNRHI": 34.0,
    "LBNRIND": "NORMAL",
    "LBBLFL": "",
    "VISITNUM": 10.0,
    "VISIT": "WEEK 16",
    "VISITDY": 112.0,
    "LBDTC": "2014-10-21T09:52",
    "LBDY": 113.0
  },
  {
    "STUDYID": "CDISCPILOT01",
    "DOMAIN": "LB",
    "USUBJID": "01-701-1034",
    "LBSEQ": 236.0,
    "LBTESTCD": "AST",
    "LBTEST": "Aspartate Aminotransferase",
    "LBCAT": "CHEMISTRY",
    "LBORRES": "22",
    "LBORRESU": "U/L",
    "LBORNRLO": "9",
    "LBORNRHI": "34",
    "LBSTRESC": "22",
    "LBSTRESN": 22.0,
    "LBSTRESU": "U/L",
    "LBSTNRLO": 9.0,
    "LBSTNRHI": 34.0,
    "LBNRIND": "NORMAL",
    "LBBLFL": "",
    "VISITNUM": 11.0,
    "VISIT": "WEEK 20",
    "VISITDY": 140.0,
    "LBDTC": "2014-11-18T12:23",
    "LBDY": 141.0
  },
  {
    "STUDYID": "CDISCPILOT01",
    "DOMAIN": "LB",
    "USUBJID": "01-701-1034",
    "LBSEQ": 267.0,
    "LBTESTCD": "AST",
    "LBTEST": "Aspartate Aminotransferase",
    "LBCAT": "CHEMISTRY",
    "LBORRES": "17",
    "LBORRESU": "U/L",
    "LBORNRLO": "9",
    "LBORNRHI": "34",
    "LBSTRESC": "17",
    "LBSTRESN": 17.0,
    "LBSTRESU": "U/L",
    "LBSTNRLO": 9.0,
    "LBSTNRHI": 34.0,
    "LBNRIND": "NORMAL",
    "LBBLFL": "",
    "VISITNUM": 12.0,
    "VISIT": "WEEK 24",
    "VISITDY": 168.0,
    "LBDTC": "2014-12-17T14:27",
    "LBDY": 170.0
  },
  {
    "STUDYID": "CDISCPILOT01",
    "DOMAIN": "LB",
    "USUBJID": "01-701-1034",
    "LBSEQ": 304.0,
    "LBTESTCD": "AST",
    "LBTEST": "Aspartate Aminotransferase",
    "LBCAT": "CHEMISTRY",
    "LBORRES": "21",
    "LBORRESU": "U/L",
    "LBORNRLO": "9",
    "LBORNRHI": "34",
    "LBSTRESC": "21",
    "LBSTRESN": 21.0,
    "LBSTRESU": "U/L",
    "LBSTNRLO": 9.0,
    "LBSTNRHI": 34.0,
    "LBNRIND": "NORMAL",
    "LBBLFL": "",
    "VISITNUM": 13.0,
    "VISIT": "WEEK 26",
    "VISITDY": 182.0,
    "LBDTC": "2014-12-30T09:50",
    "LBDY": 183.0
  },
  {
    "STUDYID": "CDISCPILOT01",
    "DOMAIN": "LB",
    "USUBJID": "01-701-1047",
    "LBSEQ": 2.0,
    "LBTESTCD": "ALP",
    "LBTEST": "Alkaline Phosphatase",
    "LBCAT": "CHEMISTRY",
    "LBORRES": "78",
    "LBORRESU": "U/L",
    "LBORNRLO": "35",
    "LBORNRHI": "115",
    "LBSTRESC": "78",
    "LBSTRESN": 78.0,
    "LBSTRESU": "U/L",
    "LBSTNRLO": 35.0,
    "LBSTNRHI": 115.0,
    "LBNRIND": "NORMAL",
    "LBBLFL": "Y",
    "VISITNUM": 1.0,
    "VISIT": "SCREENING 1",
    "VISITDY": -7.0,
    "LBDTC": "2013-01-22T14:36",
    "LBDY": -21.0
  },
  {
    "STUDYID": "CDISCPILOT01",
    "DOMAIN": "LB",
    "USUBJID": "01-701-1047",
    "LBSEQ": 39.0,
    "LBTESTCD": "ALP",
    "LBTEST": "Alkaline Phosphatase",
    "LBCAT": "CHEMISTRY",
    "LBORRES": "67",
    "LBORRESU": "U/L",
    "LBORNRLO": "35",
    "LBORNRHI": "115",
    "LBSTRESC": "67",
    "LBSTRESN": 67.0,
    "LBSTRESU": "U/L",
    "LBSTNRLO": 35.0,
    "LBSTNRHI": 115.0,
    "LBNRIND": "NORMAL",
    "LBBLFL": "",
    "VISITNUM": 4.0,
    "VISIT": "WEEK 2",
    "VISITDY": 14.0,
    "LBDTC": "2013-02-25T12:10",
    "LBDY": 14.0
  },
  {
    "STUDYID": "CDISCPILOT01",
    "DOMAIN": "LB",
    "USUBJID": "01-701-1047",
    "LBSEQ": 74.0,
    "LBTESTCD": "ALP",
    "LBTEST": "Alkaline Phosphatase",
    "LBCAT": "CHEMISTRY",
    "LBORRES": "71",
    "LBORRESU": "U/L",
    "LBORNRLO": "35",
    "LBORNRHI": "115",
    "LBSTRESC": "71",
    "LBSTRESN": 71.0,
    "LBSTRESU": "U/L",
    "LBSTNRLO": 35.0,
    "LBSTNRHI": 115.0,
    "LBNRIND": "NORMAL",
    "LBBLFL": "",
    "VISITNUM": 5.0,
    "VISIT": "WEEK 4",
    "VISITDY": 28.0,
    "LBDTC": "2013-03-10T13:53",
    "LBDY": 27.0
  },
  {
    "STUDYID": "CDISCPILOT01",
    "DOMAIN": "LB",
    "USUBJID": "01-701-1047",
    "LBSEQ": 121.0,
    "LBTESTCD": "ALP",
    "LBTEST": "Alkaline Phosphatase",
    "LBCAT": "CHEMISTRY",
    "LBORRES": "75",
    "LBORRESU": "U/L",
    "LBORNRLO": "35",
    "LBORNRHI": "115",
    "LBSTRESC": "75",
    "LBSTRESN": 75.0,
    "LBSTRESU": "U/L",
    "LBSTNRLO": 35.0,
    "LBSTNRHI": 115.0,
    "LBNRIND": "NORMAL",
    "LBBLFL": "",
    "VISITNUM": 6.1,
    "VISIT": "UNSCHEDULED 6.1",
    "VISITDY": "",
    "LBDTC": "2013-04-07T11:20",
    "LBDY": 55.0
  },
  {
    "STUDYID": "CDISCPILOT01",
    "DOMAIN": "LB",
    "USUBJID": "01-701-1047",
    "LBSEQ": 3.0,
    "LBTESTCD": "ALT",
    "LBTEST": "Alanine Aminotransferase",
    "LBCAT": "CHEMISTRY",
    "LBORRES": "22",
    "LBORRESU": "U/L",
    "LBORNRLO": "6",
    "LBORNRHI": "32",
    "LBSTRESC": "22",
    "LBSTRESN": 22.0,
    "LBSTRESU": "U/L",
    "LBSTNRLO": 6.0,
    "LBSTNRHI": 32.0,
    "LBNRIND": "NORMAL",
    "LBBLFL": "Y",
    "VISITNUM": 1.0,
    "VISIT": "SCREENING 1",
    "VISITDY": -7.0,
    "LBDTC": "2013-01-22T14:36",
    "LBDY": -21.0
  },
  {
    "STUDYID": "CDISCPILOT01",
    "DOMAIN": "LB",
    "USUBJID": "01-701-1047",
    "LBSEQ": 40.0,
    "LBTESTCD": "ALT",
    "LBTEST": "Alanine Aminotransferase",
    "LBCAT": "CHEMISTRY",
    "LBORRES": "16",
    "LBORRESU": "U/L",
    "LBORNRLO": "6",
    "LBORNRHI": "32",
    "LBSTRESC": "16",
    "LBSTRESN": 16.0,
    "LBSTRESU": "U/L",
    "LBSTNRLO": 6.0,
    "LBSTNRHI": 32.0,
    "LBNRIND": "NORMAL",
    "LBBLFL": "",
    "VISITNUM": 4.0,
    "VISIT": "WEEK 2",
    "VISITDY": 14.0,
    "LBDTC": "2013-02-25T12:10",
    "LBDY": 14.0
  },
  {
    "STUDYID": "CDISCPILOT01",
    "DOMAIN": "LB",
    "USUBJID": "01-701-1047",
    "LBSEQ": 75.0,
    "LBTESTCD": "ALT",
    "LBTEST": "Alanine Aminotransferase",
    "LBCAT": "CHEMISTRY",
    "LBORRES": "20",
    "LBORRESU": "U/L",
    "LBORNRLO": "6",
    "LBORNRHI": "32",
    "LBSTRESC": "20",
    "LBSTRESN": 20.0,
    "LBSTRESU": "U/L",
    "LBSTNRLO": 6.0,
    "LBSTNRHI": 32.0,
    "LBNRIND": "NORMAL",
    "LBBLFL": "",
    "VISITNUM": 5.0,
    "VISIT": "WEEK 4",
    "VISITDY": 28.0,
    "LBDTC": "2013-03-10T13:53",
    "LBDY": 27.0
  },
  {
    "STUDYID": "CDISCPILOT01",
    "DOMAIN": "LB",
    "USUBJID": "01-701-1047",
    "LBSEQ": 122.0,
    "LBTESTCD": "ALT",
    "LBTEST": "Alanine Aminotransferase",
    "LBCAT": "CHEMISTRY",
    "LBORRES": "17",
    "LBORRESU": "U/L",
    "LBORNRLO": "6",
    "LBORNRHI": "32",
    "LBSTRESC": "17",
    "LBSTRESN": 17.0,
    "LBSTRESU": "U/L",
    "LBSTNRLO": 6.0,
    "LBSTNRHI": 32.0,
    "LBNRIND": "NORMAL",
    "LBBLFL": "",
    "VISITNUM": 6.1,
    "VISIT": "UNSCHEDULED 6.1",
    "VISITDY": "",
    "LBDTC": "2013-04-07T11:20",
    "LBDY": 55.0
  },
  {
    "STUDYID": "CDISCPILOT01",
    "DOMAIN": "LB",
    "USUBJID": "01-701-1047",
    "LBSEQ": 4.0,
    "LBTESTCD": "AST",
    "LBTEST": "Aspartate Aminotransferase",
    "LBCAT": "CHEMISTRY",
    "LBORRES": "25",
    "LBORRESU": "U/L",
    "LBORNRLO": "9",
    "LBORNRHI": "34",
    "LBSTRESC": "25",
    "LBSTRESN": 25.0,
    "LBSTRESU": "U/L",
    "LBSTNRLO": 9.0,
    "LBSTNRHI": 34.0,
    "LBNRIND": "NORMAL",
    "LBBLFL": "Y",
    "VISITNUM": 1.0,
    "VISIT": "SCREENING 1",
    "VISITDY": -7.0,
    "LBDTC": "2013-01-22T14:36",
    "LBDY": -21.0
  },
  {
    "STUDYID": "CDISCPILOT01",
    "DOMAIN": "LB",
    "USUBJID": "01-701-1047",
    "LBSEQ": 41.0,
    "LBTESTCD": "AST",
    "LBTEST": "Aspartate Aminotransferase",
    "LBCAT": "CHEMISTRY",
    "LBORRES": "21",
    "LBORRESU": "U/L",
    "LBORNRLO": "9",
    "LBORNRHI": "34",
    "LBSTRESC": "21",
    "LBSTRESN": 21.0,
    "LBSTRESU": "U/L",
    "LBSTNRLO": 9.0,
    "LBSTNRHI": 34.0,
    "LBNRIND": "NORMAL",
    "LBBLFL": "",
    "VISITNUM": 4.0,
    "VISIT": "WEEK 2",
    "VISITDY": 14.0,
    "LBDTC": "2013-02-25T12:10",
    "LBDY": 14.0
  },
  {
    "STUDYID": "CDISCPILOT01",
    "DOMAIN": "LB",
    "USUBJID": "01-701-1047",
    "LBSEQ": 76.0,
    "LBTESTCD": "AST",
    "LBTEST": "Aspartate Aminotransferase",
    "LBCAT": "CHEMISTRY",
    "LBORRES": "24",
    "LBORRESU": "U/L",
    "LBORNRLO": "9",
    "LBORNRHI": "34",
    "LBSTRESC": "24",
    "LBSTRESN": 24.0,
    "LBSTRESU": "U/L",
    "LBSTNRLO": 9.0,
    "LBSTNRHI": 34.0,
    "LBNRIND": "NORMAL",
    "LBBLFL": "",
    "VISITNUM": 5.0,
    "VISIT": "WEEK 4",
    "VISITDY": 28.0,
    "LBDTC": "2013-03-10T13:53",
    "LBDY": 27.0
  },
  {
    "STUDYID": "CDISCPILOT01",
    "DOMAIN": "LB",
    "USUBJID": "01-701-1047",
    "LBSEQ": 123.0,
    "LBTESTCD": "AST",
    "LBTEST": "Aspartate Aminotransferase",
    "LBCAT": "CHEMISTRY",
    "LBORRES": "21",
    "LBORRESU": "U/L",
    "LBORNRLO": "9",
    "LBORNRHI": "34",
    "LBSTRESC": "21",
    "LBSTRESN": 21.0,
    "LBSTRESU": "U/L",
    "LBSTNRLO": 9.0,
    "LBSTNRHI": 34.0,
    "LBNRIND": "NORMAL",
    "LBBLFL": "",
    "VISITNUM": 6.1,
    "VISIT": "UNSCHEDULED 6.1",
    "VISITDY": "",
    "LBDTC": "2013-04-07T11:20",
    "LBDY": 55.0
  },
  {
    "STUDYID": "CDISCPILOT01",
    "DOMAIN": "LB",
    "USUBJID": "01-701-1097",
    "LBSEQ": 2.0,
    "LBTESTCD": "ALP",
    "LBTEST": "Alkaline Phosphatase",
    "LBCAT": "CHEMISTRY",
    "LBORRES": "56",
    "LBORRESU": "U/L",
    "LBORNRLO": "35",
    "LBORNRHI": "115",
    "LBSTRESC": "56",
    "LBSTRESN": 56.0,
    "LBSTRESU": "U/L",
    "LBSTNRLO": 35.0,
    "LBSTNRHI": 115.0,
    "LBNRIND": "NORMAL",
    "LBBLFL": "Y",
    "VISITNUM": 1.0,
    "VISIT": "SCREENING 1",
    "VISITDY": -7.0,
    "LBDTC": "2013-12-23T12:30",
    "LBDY": -9.0
  },
  {
    "STUDYID": "CDISCPILOT01",
    "DOMAIN": "LB",
    "USUBJID": "01-701-1097",
    "LBSEQ": 39.0,
    "LBTESTCD": "ALP",
    "LBTEST": "Alkaline Phosphatase",
    "LBCAT": "CHEMISTRY",
    "LBORRES": "54",
    "LBORRESU": "U/L",
    "LBORNRLO": "35",
    "LBORNRHI": "115",
    "LBSTRESC": "54",
    "LBSTRESN": 54.0,
    "LBSTRESU": "U/L",
    "LBSTNRLO": 35.0,
    "LBSTNRHI": 115.0,
    "LBNRIND": "NORMAL",
    "LBBLFL": "",
    "VISITNUM": 4.0,
    "VISIT": "WEEK 2",
    "VISITDY": 14.0,
    "LBDTC": "2014-01-15T10:03",
    "LBDY": 15.0
  },
  {
    "STUDYID": "CDISCPILOT01",
    "DOMAIN": "LB",
    "USUBJID": "01-701-1097",
    "LBSEQ": 74.0,
    "LBTESTCD": "ALP",
    "LBTEST": "Alkaline Phosphatase",
    "LBCAT": "CHEMISTRY",
    "LBORRES": "49",
    "LBORRESU": "U/L",
    "LBORNRLO": "35",
    "LBORNRHI": "115",
    "LBSTRESC": "49",
    "LBSTRESN": 49.0,
    "LBSTRESU": "U/L",
    "LBSTNRLO": 35.0,
    "LBSTNRHI": 115.0,
    "LBNRIND": "NORMAL",
    "LBBLFL": "",
    "VISITNUM": 5.0,
    "VISIT": "WEEK 4",
    "VISITDY": 28.0,
    "LBDTC": "2014-01-29T14:00",
    "LBDY": 29.0
  },
  {
    "STUDYID": "CDISCPILOT01",
    "DOMAIN": "LB",
    "USUBJID": "01-701-1097",
    "LBSEQ": 104.0,
    "LBTESTCD": "ALP",
    "LBTEST": "Alkaline Phosphatase",
    "LBCAT": "CHEMISTRY",
    "LBORRES": "48",
    "LBORRESU": "U/L",
    "LBORNRLO": "35",
    "LBORNRHI": "115",
    "LBSTRESC": "48",
    "LBSTRESN": 48.0,
    "LBSTRESU": "U/L",
    "LBSTNRLO": 35.0,
    "LBSTNRHI": 115.0,
    "LBNRIND": "NORMAL",
    "LBBLFL": "",
    "VISITNUM": 7.0,
    "VISIT": "WEEK 6",
    "VISITDY": 42.0,
    "LBDTC": "2014-02-11T11:16",
    "LBDY": 42.0
  },
  {
    "STUDYID": "CDISCPILOT01",
    "DOMAIN": "LB",
    "USUBJID": "01-701-1097",
    "LBSEQ": 134.0,
    "LBTESTCD": "ALP",
    "LBTEST": "Alkaline Phosphatase",
    "LBCAT": "CHEMISTRY",
    "LBORRES": "49",
    "LBORRESU": "U/L",
    "LBORNRLO": "35",
    "LBORNRHI": "115",
    "LBSTRESC": "49",
    "LBSTRESN": 49.0,
    "LBSTRESU": "U/L",
    "LBSTNRLO": 35.0,
    "LBSTNRHI": 115.0,
    "LBNRIND": "NORMAL",
    "LBBLFL": "",
    "VISITNUM": 8.0,
    "VISIT": "WEEK 8",
    "VISITDY": 56.0,
    "LBDTC": "2014-02-26T11:10",
    "LBDY": 57.0
  },
  {
    "STUDYID": "CDISCPILOT01",
    "DOMAIN": "LB",
    "USUBJID": "01-701-1097",
    "LBSEQ": 164.0,
    "LBTESTCD": "ALP",
    "LBTEST": "Alkaline Phosphatase",
    "LBCAT": "CHEMISTRY",
    "LBORRES": "53",
    "LBORRESU": "U/L",
    "LBORNRLO": "35",
    "LBORNRHI": "115",
    "LBSTRESC": "53",
    "LBSTRESN": 53.0,
    "LBSTRESU": "U/L",
    "LBSTNRLO": 35.0,
    "LBSTNRHI": 115.0,
    "LBNRIND": "NORMAL",
    "LBBLFL": "",
    "VISITNUM": 9.0,
    "VISIT": "WEEK 12",
    "VISITDY": 84.0,
    "LBDTC": "2014-03-26T08:55",
    "LBDY": 85.0
  },
  {
    "STUDYID": "CDISCPILOT01",
    "DOMAIN": "LB",
    "USUBJID": "01-701-1097",
    "LBSEQ": 199.0,
    "LBTESTCD": "ALP",
    "LBTEST": "Alkaline Phosphatase",
    "LBCAT": "CHEMISTRY",
    "LBORRES": "67",
    "LBORRESU": "U/L",
    "LBORNRLO": "35",
    "LBORNRHI": "115",
    "LBSTRESC": "67",
    "LBSTRESN": 67.0,
    "LBSTRESU": "U/L",
    "LBSTNRLO": 35.0,
    "LBSTNRHI": 115.0,
    "LBNRIND": "NORMAL",
    "LBBLFL": "",
    "VISITNUM": 10.0,
    "VISIT": "WEEK 16",
    "VISITDY": 112.0,
    "LBDTC": "2014-04-23T11:14",
    "LBDY": 113.0
  },
  {
    "STUDYID": "CDISCPILOT01",
    "DOMAIN": "LB",
    "USUBJID": "01-701-1097",
    "LBSEQ": 229.0,
    "LBTESTCD": "ALP",
    "LBTEST": "Alkaline Phosphatase",
    "LBCAT": "CHEMISTRY",
    "LBORRES": "50",
    "LBORRESU": "U/L",
    "LBORNRLO": "35",
    "LBORNRHI": "115",
    "LBSTRESC": "50",
    "LBSTRESN": 50.0,
    "LBSTRESU": "U/L",
    "LBSTNRLO": 35.0,
    "LBSTNRHI": 115.0,
    "LBNRIND": "NORMAL",
    "LBBLFL": "",
    "VISITNUM": 11.0,
    "VISIT": "WEEK 20",
    "VISITDY": 140.0,
    "LBDTC": "2014-05-21T15:06",
    "LBDY": 141.0
  },
  {
    "STUDYID": "CDISCPILOT01",
    "DOMAIN": "LB",
    "USUBJID": "01-701-1097",
    "LBSEQ": 259.0,
    "LBTESTCD": "ALP",
    "LBTEST": "Alkaline Phosphatase",
    "LBCAT": "CHEMISTRY",
    "LBORRES": "54",
    "LBORRESU": "U/L",
    "LBORNRLO": "35",
    "LBORNRHI": "115",
    "LBSTRESC": "54",
    "LBSTRESN": 54.0,
    "LBSTRESU": "U/L",
    "LBSTNRLO": 35.0,
    "LBSTNRHI": 115.0,
    "LBNRIND": "NORMAL",
    "LBBLFL": "",
    "VISITNUM": 12.0,
    "VISIT": "WEEK 24",
    "VISITDY": 168.0,
    "LBDTC": "2014-06-18T10:41",
    "LBDY": 169.0
  },
  {
    "STUDYID": "CDISCPILOT01",
    "DOMAIN": "LB",
    "USUBJID": "01-701-1097",
    "LBSEQ": 294.0,
    "LBTESTCD": "ALP",
    "LBTEST": "Alkaline Phosphatase",
    "LBCAT": "CHEMISTRY",
    "LBORRES": "52",
    "LBORRESU": "U/L",
    "LBORNRLO": "35",
    "LBORNRHI": "115",
    "LBSTRESC": "52",
    "LBSTRESN": 52.0,
    "LBSTRESU": "U/L",
    "LBSTNRLO": 35.0,
    "LBSTNRHI": 115.0,
    "LBNRIND": "NORMAL",
    "LBBLFL": "",
    "VISITNUM": 13.0,
    "VISIT": "WEEK 26",
    "VISITDY": 182.0,
    "LBDTC": "2014-07-09T09:39",
    "LBDY": 190.0
  },
  {
    "STUDYID": "CDISCPILOT01",
    "DOMAIN": "LB",
    "USUBJID": "01-701-1097",
    "LBSEQ": 3.0,
    "LBTESTCD": "ALT",
    "LBTEST": "Alanine Aminotransferase",
    "LBCAT": "CHEMISTRY",
    "LBORRES": "16",
    "LBORRESU": "U/L",
    "LBORNRLO": "6",
    "LBORNRHI": "43",
    "LBSTRESC": "16",
    "LBSTRESN": 16.0,
    "LBSTRESU": "U/L",
    "LBSTNRLO": 6.0,
    "LBSTNRHI": 43.0,
    "LBNRIND": "NORMAL",
    "LBBLFL": "Y",
    "VISITNUM": 1.0,
    "VISIT": "SCREENING 1",
    "VISITDY": -7.0,
    "LBDTC": "2013-12-23T12:30",
    "LBDY": -9.0
  },
  {
    "STUDYID": "CDISCPILOT01",
    "DOMAIN": "LB",
    "USUBJID": "01-701-1097",
    "LBSEQ": 40.0,
    "LBTESTCD": "ALT",
    "LBTEST": "Alanine Aminotransferase",
    "LBCAT": "CHEMISTRY",
    "LBORRES": "24",
    "LBORRESU": "U/L",
    "LBORNRLO": "6",
    "LBORNRHI": "43",
    "LBSTRESC": "24",
    "LBSTRESN": 24.0,
    "LBSTRESU": "U/L",
    "LBSTNRLO": 6.0,
    "LBSTNRHI": 43.0,
    "LBNRIND": "NORMAL",
    "LBBLFL": "",
    "VISITNUM": 4.0,
    "VISIT": "WEEK 2",
    "VISITDY": 14.0,
    "LBDTC": "2014-01-15T10:03",
    "LBDY": 15.0
  },
  {
    "STUDYID": "CDISCPILOT01",
    "DOMAIN": "LB",
    "USUBJID": "01-701-1097",
    "LBSEQ": 75.0,
    "LBTESTCD": "ALT",
    "LBTEST": "Alanine Aminotransferase",
    "LBCAT": "CHEMISTRY",
    "LBORRES": "17",
    "LBORRESU": "U/L",
    "LBORNRLO": "6",
    "LBORNRHI": "43",
    "LBSTRESC": "17",
    "LBSTRESN": 17.0,
    "LBSTRESU": "U/L",
    "LBSTNRLO": 6.0,
    "LBSTNRHI": 43.0,
    "LBNRIND": "NORMAL",
    "LBBLFL": "",
    "VISITNUM": 5.0,
    "VISIT": "WEEK 4",
    "VISITDY": 28.0,
    "LBDTC": "2014-01-29T14:00",
    "LBDY": 29.0
  },
  {
    "STUDYID": "CDISCPILOT01",
    "DOMAIN": "LB",
    "USUBJID": "01-701-1097",
    "LBSEQ": 105.0,
    "LBTESTCD": "ALT",
    "LBTEST": "Alanine Aminotransferase",
    "LBCAT": "CHEMISTRY",
    "LBORRES": "14",
    "LBORRESU": "U/L",
    "LBORNRLO": "6",
    "LBORNRHI": "43",
    "LBSTRESC": "14",
    "LBSTRESN": 14.0,
    "LBSTRESU": "U/L",
    "LBSTNRLO": 6.0,
    "LBSTNRHI": 43.0,
    "LBNRIND": "NORMAL",
    "LBBLFL": "",
    "VISITNUM": 7.0,
    "VISIT": "WEEK 6",
    "VISITDY": 42.0,
    "LBDTC": "2014-02-11T11:16",
    "LBDY": 42.0
  },
  {
    "STUDYID": "CDISCPILOT01",
    "DOMAIN": "LB",
    "USUBJID": "01-701-1097",
    "LBSEQ": 135.0,
    "LBTESTCD": "ALT",
    "LBTEST": "Alanine Aminotransferase",
    "LBCAT": "CHEMISTRY",
    "LBORRES": "18",
    "LBORRESU": "U/L",
    "LBORNRLO": "6",
    "LBORNRHI": "43",
    "LBSTRESC": "18",
    "LBSTRESN": 18.0,
    "LBSTRESU": "U/L",
    "LBSTNRLO": 6.0,
    "LBSTNRHI": 43.0,
    "LBNRIND": "NORMAL",
    "LBBLFL": "",
    "VISITNUM": 8.0,
    "VISIT": "WEEK 8",
    "VISITDY": 56.0,
    "LBDTC": "2014-02-26T11:10",
    "LBDY": 57.0
  },
  {
    "STUDYID": "CDISCPILOT01",
    "DOMAIN": "LB",
    "USUBJID": "01-701-1097",
    "LBSEQ": 165.0,
    "LBTESTCD": "ALT",
    "LBTEST": "Alanine Aminotransferase",
    "LBCAT": "CHEMISTRY",
    "LBORRES": "14",
    "LBORRESU": "U/L",
    "LBORNRLO": "6",
    "LBORNRHI": "43",
    "LBSTRESC": "14",
    "LBSTRESN": 14.0,
    "LBSTRESU": "U/L",
    "LBSTNRLO": 6.0,
    "LBSTNRHI": 43.0,
    "LBNRIND": "NORMAL",
    "LBBLFL": "",
    "VISITNUM": 9.0,
    "VISIT": "WEEK 12",
    "VISITDY": 84.0,
    "LBDTC": "2014-03-26T08:55",
    "LBDY": 85.0
  },
  {
    "STUDYID": "CDISCPILOT01",
    "DOMAIN": "LB",
    "USUBJID": "01-701-1097",
    "LBSEQ": 200.0,
    "LBTESTCD": "ALT",
    "LBTEST": "Alanine Aminotransferase",
    "LBCAT": "CHEMISTRY",
    "LBORRES": "15",
    "LBORRESU": "U/L",
    "LBORNRLO": "6",
    "LBORNRHI": "43",
    "LBSTRESC": "15",
    "LBSTRESN": 15.0,
    "LBSTRESU": "U/L",
    "LBSTNRLO": 6.0,
    "LBSTNRHI": 43.0,
    "LBNRIND": "NORMAL",
    "LBBLFL": "",
    "VISITNUM": 10.0,
    "VISIT": "WEEK 16",
    "VISITDY": 112.0,
    "LBDTC": "2014-04-23T11:14",
    "LBDY": 113.0
  },
  {
    "STUDYID": "CDISCPILOT01",
    "DOMAIN": "LB",
    "USUBJID": "01-701-1097",
    "LBSEQ": 230.0,
    "LBTESTCD": "ALT",
    "LBTEST": "Alanine Aminotransferase",
    "LBCAT": "CHEMISTRY",
    "LBORRES": "11",
    "LBORRESU": "U/L",
    "LBORNRLO": "6",
    "LBORNRHI": "43",
    "LBSTRESC": "11",
    "LBSTRESN": 11.0,
    "LBSTRESU": "U/L",
    "LBSTNRLO": 6.0,
    "LBSTNRHI": 43.0,
    "LBNRIND": "NORMAL",
    "LBBLFL": "",
    "VISITNUM": 11.0,
    "VISIT": "WEEK 20",
    "VISITDY": 140.0,
    "LBDTC": "2014-05-21T15:06",
    "LBDY": 141.0
  },
  {
    "STUDYID": "CDISCPILOT01",
    "DOMAIN": "LB",
    "USUBJID": "01-701-1097",
    "LBSEQ": 260.0,
    "LBTESTCD": "ALT",
    "LBTEST": "Alanine Aminotransferase",
    "LBCAT": "CHEMISTRY",
    "LBORRES": "18",
    "LBORRESU": "U/L",
    "LBORNRLO": "6",
    "LBORNRHI": "43",
    "LBSTRESC": "18",
    "LBSTRESN": 18.0,
    "LBSTRESU": "U/L",
    "LBSTNRLO": 6.0,
    "LBSTNRHI": 43.0,
    "LBNRIND": "NORMAL",
    "LBBLFL": "",
    "VISITNUM": 12.0,
    "VISIT": "WEEK 24",
    "VISITDY": 168.0,
    "LBDTC": "2014-06-18T10:41",
    "LBDY": 169.0
  },
  {
    "STUDYID": "CDISCPILOT01",
    "DOMAIN": "LB",
    "USUBJID": "01-701-1097",
    "LBSEQ": 295.0,
    "LBTESTCD": "ALT",
    "LBTEST": "Alanine Aminotransferase",
    "LBCAT": "CHEMISTRY",
    "LBORRES": "15",
    "LBORRESU": "U/L",
    "LBORNRLO": "6",
    "LBORNRHI": "43",
    "LBSTRESC": "15",
    "LBSTRESN": 15.0,
    "LBSTRESU": "U/L",
    "LBSTNRLO": 6.0,
    "LBSTNRHI": 43.0,
    "LBNRIND": "NORMAL",
    "LBBLFL": "",
    "VISITNUM": 13.0,
    "VISIT": "WEEK 26",
    "VISITDY": 182.0,
    "LBDTC": "2014-07-09T09:39",
    "LBDY": 190.0
  },
  {
    "STUDYID": "CDISCPILOT01",
    "DOMAIN": "LB",
    "USUBJID": "01-701-1097",
    "LBSEQ": 4.0,
    "LBTESTCD": "AST",
    "LBTEST": "Aspartate Aminotransferase",
    "LBCAT": "CHEMISTRY",
    "LBORRES": "19",
    "LBORRESU": "U/L",
    "LBORNRLO": "11",
    "LBORNRHI": "36",
    "LBSTRESC": "19",
    "LBSTRESN": 19.0,
    "LBSTRESU": "U/L",
    "LBSTNRLO": 11.0,
    "LBSTNRHI": 36.0,
    "LBNRIND": "NORMAL",
    "LBBLFL": "Y",
    "VISITNUM": 1.0,
    "VISIT": "SCREENING 1",
    "VISITDY": -7.0,
    "LBDTC": "2013-12-23T12:30",
    "LBDY": -9.0
  },
  {
    "STUDYID": "CDISCPILOT01",
    "DOMAIN": "LB",
    "USUBJID": "01-701-1097",
    "LBSEQ": 41.0,
    "LBTESTCD": "AST",
    "LBTEST": "Aspartate Aminotransferase",
    "LBCAT": "CHEMISTRY",
    "LBORRES": "21",
    "LBORRESU": "U/L",
    "LBORNRLO": "11",
    "LBORNRHI": "36",
    "LBSTRESC": "21",
    "LBSTRESN": 21.0,
    "LBSTRESU": "U/L",
    "LBSTNRLO": 11.0,
    "LBSTNRHI": 36.0,
    "LBNRIND": "NORMAL",
    "LBBLFL": "",
    "VISITNUM": 4.0,
    "VISIT": "WEEK 2",
    "VISITDY": 14.0,
    "LBDTC": "2014-01-15T10:03",
    "LBDY": 15.0
  },
  {
    "STUDYID": "CDISCPILOT01",
    "DOMAIN": "LB",
    "USUBJID": "01-701-1097",
    "LBSEQ": 76.0,
    "LBTESTCD": "AST",
    "LBTEST": "Aspartate Aminotransferase",
    "LBCAT": "CHEMISTRY",
    "LBORRES": "16",
    "LBORRESU": "U/L",
    "LBORNRLO": "11",
    "LBORNRHI": "36",
    "LBSTRESC": "16",
    "LBSTRESN": 16.0,
    "LBSTRESU": "U/L",
    "LBSTNRLO": 11.0,
    "LBSTNRHI": 36.0,
    "LBNRIND": "NORMAL",
    "LBBLFL": "",
    "VISITNUM": 5.0,
    "VISIT": "WEEK 4",
    "VISITDY": 28.0,
    "LBDTC": "2014-01-29T14:00",
    "LBDY": 29.0
  },
  {
    "STUDYID": "CDISCPILOT01",
    "DOMAIN": "LB",
    "USUBJID": "01-701-1097",
    "LBSEQ": 106.0,
    "LBTESTCD": "AST",
    "LBTEST": "Aspartate Aminotransferase",
    "LBCAT": "CHEMISTRY",
    "LBORRES": "19",
    "LBORRESU": "U/L",
    "LBORNRLO": "11",
    "LBORNRHI": "36",
    "LBSTRESC": "19",
    "LBSTRESN": 19.0,
    "LBSTRESU": "U/L",
    "LBSTNRLO": 11.0,
    "LBSTNRHI": 36.0,
    "LBNRIND": "NORMAL",
    "LBBLFL": "",
    "VISITNUM": 7.0,
    "VISIT": "WEEK 6",
    "VISITDY": 42.0,
    "LBDTC": "2014-02-11T11:16",
    "LBDY": 42.0
  },
  {
    "STUDYID": "CDISCPILOT01",
    "DOMAIN": "LB",
    "USUBJID": "01-701-1097",
    "LBSEQ": 136.0,
    "LBTESTCD": "AST",
    "LBTEST": "Aspartate Aminotransferase",
    "LBCAT": "CHEMISTRY",
    "LBORRES": "18",
    "LBORRESU": "U/L",
    "LBORNRLO": "11",
    "LBORNRHI": "36",
    "LBSTRESC": "18",
    "LBSTRESN": 18.0,
    "LBSTRESU": "U/L",
    "LBSTNRLO": 11.0,
    "LBSTNRHI": 36.0,
    "LBNRIND": "NORMAL",
    "LBBLFL": "",
    "VISITNUM": 8.0,
    "VISIT": "WEEK 8",
    "VISITDY": 56.0,
    "LBDTC": "2014-02-26T11:10",
    "LBDY": 57.0
  },
  {
    "STUDYID": "CDISCPILOT01",
    "DOMAIN": "LB",
    "USUBJID": "01-701-1097",
    "LBSEQ": 166.0,
    "LBTESTCD": "AST",
    "LBTEST": "Aspartate Aminotransferase",
    "LBCAT": "CHEMISTRY",
    "LBORRES": "17",
    "LBORRESU": "U/L",
    "LBORNRLO": "11",
    "LBORNRHI": "36",
    "LBSTRESC": "17",
    "LBSTRESN": 17.0,
    "LBSTRESU": "U/L",
    "LBSTNRLO": 11.0,
    "LBSTNRHI": 36.0,
    "LBNRIND": "NORMAL",
    "LBBLFL": "",
    "VISITNUM": 9.0,
    "VISIT": "WEEK 12",
    "VISITDY": 84.0,
    "LBDTC": "2014-03-26T08:55",
    "LBDY": 85.0
  },
  {
    "STUDYID": "CDISCPILOT01",
    "DOMAIN": "LB",
    "USUBJID": "01-701-1097",
    "LBSEQ": 201.0,
    "LBTESTCD": "AST",
    "LBTEST": "Aspartate Aminotransferase",
    "LBCAT": "CHEMISTRY",
    "LBORRES": "17",
    "LBORRESU": "U/L",
    "LBORNRLO": "11",
    "LBORNRHI": "36",
    "LBSTRESC": "17",
    "LBSTRESN": 17.0,
    "LBSTRESU": "U/L",
    "LBSTNRLO": 11.0,
    "LBSTNRHI": 36.0,
    "LBNRIND": "NORMAL",
    "LBBLFL": "",
    "VISITNUM": 10.0,
    "VISIT": "WEEK 16",
    "VISITDY": 112.0,
    "LBDTC": "2014-04-23T11:14",
    "LBDY": 113.0
  },
  {
    "STUDYID": "CDISCPILOT01",
    "DOMAIN": "LB",
    "USUBJID": "01-701-1097",
    "LBSEQ": 231.0,
    "LBTESTCD": "AST",
    "LBTEST": "Aspartate Aminotransferase",
    "LBCAT": "CHEMISTRY",
    "LBORRES": "16",
    "LBORRESU": "U/L",
    "LBORNRLO": "11",
    "LBORNRHI": "36",
    "LBSTRESC": "16",
    "LBSTRESN": 16.0,
    "LBSTRESU": "U/L",
    "LBSTNRLO": 11.0,
    "LBSTNRHI": 36.0,
    "LBNRIND": "NORMAL",
    "LBBLFL": "",
    "VISITNUM": 11.0,
    "VISIT": "WEEK 20",
    "VISITDY": 140.0,
    "LBDTC": "2014-05-21T15:06",
    "LBDY": 141.0
  },
  {
    "STUDYID": "CDISCPILOT01",
    "DOMAIN": "LB",
    "USUBJID": "01-701-1097",
    "LBSEQ": 261.0,
    "LBTESTCD": "AST",
    "LBTEST": "Aspartate Aminotransferase",
    "LBCAT": "CHEMISTRY",
    "LBORRES": "20",
    "LBORRESU": "U/L",
    "LBORNRLO": "11",
    "LBORNRHI": "36",
    "LBSTRESC": "20",
    "LBSTRESN": 20.0,
    "LBSTRESU": "U/L",
    "LBSTNRLO": 11.0,
    "LBSTNRHI": 36.0,
    "LBNRIND": "NORMAL",
    "LBBLFL": "",
    "VISITNUM": 12.0,
    "VISIT": "WEEK 24",
    "VISITDY": 168.0,
    "LBDTC": "2014-06-18T10:41",
    "LBDY": 169.0
  },
  {
    "STUDYID": "CDISCPILOT01",
    "DOMAIN": "LB",
    "USUBJID": "01-701-1097",
    "LBSEQ": 296.0,
    "LBTESTCD": "AST",
    "LBTEST": "Aspartate Aminotransferase",
    "LBCAT": "CHEMISTRY",
    "LBORRES": "19",
    "LBORRESU": "U/L",
    "LBORNRLO": "11",
    "LBORNRHI": "36",
    "LBSTRESC": "19",
    "LBSTRESN": 19.0,
    "LBSTRESU": "U/L",
    "LBSTNRLO": 11.0,
    "LBSTNRHI": 36.0,
    "LBNRIND": "NORMAL",
    "LBBLFL": "",
    "VISITNUM": 13.0,
    "VISIT": "WEEK 26",
    "VISITDY": 182.0,
    "LBDTC": "2014-07-09T09:39",
    "LBDY": 190.0
  },
  {
    "STUDYID": "CDISCPILOT01",
    "DOMAIN": "LB",
    "USUBJID": "01-701-1111",
    "LBSEQ": 2.0,
    "LBTESTCD": "ALP",
    "LBTEST": "Alkaline Phosphatase",
    "LBCAT": "CHEMISTRY",
    "LBORRES": "64",
    "LBORRESU": "U/L",
    "LBORNRLO": "35",
    "LBORNRHI": "115",
    "LBSTRESC": "64",
    "LBSTRESN": 64.0,
    "LBSTRESU": "U/L",
    "LBSTNRLO": 35.0,
    "LBSTNRHI": 115.0,
    "LBNRIND": "NORMAL",
    "LBBLFL": "Y",
    "VISITNUM": 1.0,
    "VISIT": "SCREENING 1",
    "VISITDY": -7.0,
    "LBDTC": "2012-08-25T15:25",
    "LBDY": -13.0
  },
  {
    "STUDYID": "CDISCPILOT01",
    "DOMAIN": "LB",
    "USUBJID": "01-701-1111",
    "LBSEQ": 39.0,
    "LBTESTCD": "ALP",
    "LBTEST": "Alkaline Phosphatase",
    "LBCAT": "CHEMISTRY",
    "LBORRES": "58",
    "LBORRESU": "U/L",
    "LBORNRLO": "35",
    "LBORNRHI": "115",
    "LBSTRESC": "58",
    "LBSTRESN": 58.0,
    "LBSTRESU": "U/L",
    "LBSTNRLO": 35.0,
    "LBSTNRHI": 115.0,
    "LBNRIND": "NORMAL",
    "LBBLFL": "",
    "VISITNUM": 4.0,
    "VISIT": "WEEK 2",
    "VISITDY": 14.0,
    "LBDTC": "2012-09-17T11:48",
    "LBDY": 11.0
  },
  {
    "STUDYID": "CDISCPILOT01",
    "DOMAIN": "LB",
    "USUBJID": "01-701-1111",
    "LBSEQ": 3.0,
    "LBTESTCD": "ALT",
    "LBTEST": "Alanine Aminotransferase",
    "LBCAT": "CHEMISTRY",
    "LBORRES": "23",
    "LBORRESU": "U/L",
    "LBORNRLO": "6",
    "LBORNRHI": "32",
    "LBSTRESC": "23",
    "LBSTRESN": 23.0,
    "LBSTRESU": "U/L",
    "LBSTNRLO": 6.0,
    "LBSTNRHI": 32.0,
    "LBNRIND": "NORMAL",
    "LBBLFL": "Y",
    "VISITNUM": 1.0,
    "VISIT": "SCREENING 1",
    "VISITDY": -7.0,
    "LBDTC": "2012-08-25T15:25",
    "LBDY": -13.0
  },
  {
    "STUDYID": "CDISCPILOT01",
    "DOMAIN": "LB",
    "USUBJID": "01-701-1111",
    "LBSEQ": 40.0,
    "LBTESTCD": "ALT",
    "LBTEST": "Alanine Aminotransferase",
    "LBCAT": "CHEMISTRY",
    "LBORRES": "19",
    "LBORRESU": "U/L",
    "LBORNRLO": "6",
    "LBORNRHI": "32",
    "LBSTRESC": "19",
    "LBSTRESN": 19.0,
    "LBSTRESU": "U/L",
    "LBSTNRLO": 6.0,
    "LBSTNRHI": 32.0,
    "LBNRIND": "NORMAL",
    "LBBLFL": "",
    "VISITNUM": 4.0,
    "VISIT": "WEEK 2",
    "VISITDY": 14.0,
    "LBDTC": "2012-09-17T11:48",
    "LBDY": 11.0
  },
  {
    "STUDYID": "CDISCPILOT01",
    "DOMAIN": "LB",
    "USUBJID": "01-701-1111",
    "LBSEQ": 4.0,
    "LBTESTCD": "AST",
    "LBTEST": "Aspartate Aminotransferase",
    "LBCAT": "CHEMISTRY",
    "LBORRES": "28",
    "LBORRESU": "U/L",
    "LBORNRLO": "9",
    "LBORNRHI": "34",
    "LBSTRESC": "28",
    "LBSTRESN": 28.0,
    "LBSTRESU": "U/L",
    "LBSTNRLO": 9.0,
    "LBSTNRHI": 34.0,
    "LBNRIND": "NORMAL",
    "LBBLFL": "Y",
    "VISITNUM": 1.0,
    "VISIT": "SCREENING 1",
    "VISITDY": -7.0,
    "LBDTC": "2012-08-25T15:25",
    "LBDY": -13.0
  },
  {
    "STUDYID": "CDISCPILOT01",
    "DOMAIN": "LB",
    "USUBJID": "01-701-1111",
    "LBSEQ": 42.0,
    "LBTESTCD": "AST",
    "LBTEST": "Aspartate Aminotransferase",
    "LBCAT": "CHEMISTRY",
    "LBORRES": "23",
    "LBORRESU": "U/L",
    "LBORNRLO": "9",
    "LBORNRHI": "34",
    "LBSTRESC": "23",
    "LBSTRESN": 23.0,
    "LBSTRESU": "U/L",
    "LBSTNRLO": 9.0,
    "LBSTNRHI": 34.0,
    "LBNRIND": "NORMAL",
    "LBBLFL": "",
    "VISITNUM": 4.0,
    "VISIT": "WEEK 2",
    "VISITDY": 14.0,
    "LBDTC": "2012-09-17T11:48",
    "LBDY": 11.0
  },
  {
    "STUDYID": "CDISCPILOT01",
    "DOMAIN": "LB",
    "USUBJID": "01-701-1115",
    "LBSEQ": 2.0,
    "LBTESTCD": "ALP",
    "LBTEST": "Alkaline Phosphatase",
    "LBCAT": "CHEMISTRY",
    "LBORRES": "93",
    "LBORRESU": "U/L",
    "LBORNRLO": "35",
    "LBORNRHI": "115",
    "LBSTRESC": "93",
    "LBSTRESN": 93.0,
    "LBSTRESU": "U/L",
    "LBSTNRLO": 35.0,
    "LBSTNRHI": 115.0,
    "LBNRIND": "NORMAL",
    "LBBLFL": "Y",
    "VISITNUM": 1.0,
    "VISIT": "SCREENING 1",
    "VISITDY": -7.0,
    "LBDTC": "2012-11-23T11:20",
    "LBDY": -7.0
  },
  {
    "STUDYID": "CDISCPILOT01",
    "DOMAIN": "LB",
    "USUBJID": "01-701-1115",
    "LBSEQ": 39.0,
    "LBTESTCD": "ALP",
    "LBTEST": "Alkaline Phosphatase",
    "LBCAT": "CHEMISTRY",
    "LBORRES": "88",
    "LBORRESU": "U/L",
    "LBORNRLO": "35",
    "LBORNRHI": "115",
    "LBSTRESC": "88",
    "LBSTRESN": 88.0,
    "LBSTRESU": "U/L",
    "LBSTNRLO": 35.0,
    "LBSTNRHI": 115.0,
    "LBNRIND": "NORMAL",
    "LBBLFL": "",
    "VISITNUM": 4.0,
    "VISIT": "WEEK 2",
    "VISITDY": 14.0,
    "LBDTC": "2012-12-13T14:05",
    "LBDY": 14.0
  },
  {
    "STUDYID": "CDISCPILOT01",
    "DOMAIN": "LB",
    "USUBJID": "01-701-1115",
    "LBSEQ": 74.0,
    "LBTESTCD": "ALP",
    "LBTEST": "Alkaline Phosphatase",
    "LBCAT": "CHEMISTRY",
    "LBORRES": "91",
    "LBORRESU": "U/L",
    "LBORNRLO": "35",
    "LBORNRHI": "115",
    "LBSTRESC": "91",
    "LBSTRESN": 91.0,
    "LBSTRESU": "U/L",
    "LBSTNRLO": 35.0,
    "LBSTNRHI": 115.0,
    "LBNRIND": "NORMAL",
    "LBBLFL": "",
    "VISITNUM": 5.0,
    "VISIT": "WEEK 4",
    "VISITDY": 28.0,
    "LBDTC": "2012-12-26T08:44",
    "LBDY": 27.0
  },
  {
    "STUDYID": "CDISCPILOT01",
    "DOMAIN": "LB",
    "USUBJID": "01-701-1115",
    "LBSEQ": 104.0,
    "LBTESTCD": "ALP",
    "LBTEST": "Alkaline Phosphatase",
    "LBCAT": "CHEMISTRY",
    "LBORRES": "101",
    "LBORRESU": "U/L",
    "LBORNRLO": "35",
    "LBORNRHI": "115",
    "LBSTRESC": "101",
    "LBSTRESN": 101.0,
    "LBSTRESU": "U/L",
    "LBSTNRLO": 35.0,
    "LBSTNRHI": 115.0,
    "LBNRIND": "NORMAL",
    "LBBLFL": "",
    "VISITNUM": 5.1,
    "VISIT": "UNSCHEDULED 5.1",
    "VISITDY": "",
    "LBDTC": "2012-12-28T09:27",
    "LBDY": 29.0
  },
  {
    "STUDYID": "CDISCPILOT01",
    "DOMAIN": "LB",
    "USUBJID": "01-701-1115",
    "LBSEQ": 119.0,
    "LBTESTCD": "ALP",
    "LBTEST": "Alkaline Phosphatase",
    "LBCAT": "CHEMISTRY",
    "LBORRES": "98",
    "LBORRESU": "U/L",
    "LBORNRLO": "35",
    "LBORNRHI": "115",
    "LBSTRESC": "98",
    "LBSTRESN": 98.0,
    "LBSTRESU": "U/L",
    "LBSTNRLO": 35.0,
    "LBSTNRHI": 115.0,
    "LBNRIND": "NORMAL",
    "LBBLFL": "",
    "VISITNUM": 7.0,
    "VISIT": "WEEK 6",
    "VISITDY": 42.0,
    "LBDTC": "2013-01-10T15:20",
    "LBDY": 42.0
  },
  {
    "STUDYID": "CDISCPILOT01",
    "DOMAIN": "LB",
    "USUBJID": "01-701-1115",
    "LBSEQ": 149.0,
    "LBTESTCD": "ALP",
    "LBTEST": "Alkaline Phosphatase",
    "LBCAT": "CHEMISTRY",
    "LBORRES": "98",
    "LBORRESU": "U/L",
    "LBORNRLO": "35",
    "LBORNRHI": "115",
    "LBSTRESC": "98",
    "LBSTRESN": 98.0,
    "LBSTRESU": "U/L",
    "LBSTNRLO": 35.0,
    "LBSTNRHI": 115.0,
    "LBNRIND": "NORMAL",
    "LBBLFL": "",
    "VISITNUM": 8.0,
    "VISIT": "WEEK 8",
    "VISITDY": 56.0,
    "LBDTC": "2013-01-23T12:13",
    "LBDY": 55.0
  },
  {
    "STUDYID": "CDISCPILOT01",
    "DOMAIN": "LB",
    "USUBJID": "01-701-1115",
    "LBSEQ": 3.0,
    "LBTESTCD": "ALT",
    "LBTEST": "Alanine Aminotransferase",
    "LBCAT": "CHEMISTRY",
    "LBORRES": "18",
    "LBORRESU": "U/L",
    "LBORNRLO": "6",
    "LBORNRHI": "35",
    "LBSTRESC": "18",
    "LBSTRESN": 18.0,
    "LBSTRESU": "U/L",
    "LBSTNRLO": 6.0,
    "LBSTNRHI": 35.0,
    "LBNRIND": "NORMAL",
    "LBBLFL": "Y",
    "VISITNUM": 1.0,
    "VISIT": "SCREENING 1",
    "VISITDY": -7.0,
    "LBDTC": "2012-11-23T11:20",
    "LBDY": -7.0
  },
  {
    "STUDYID": "CDISCPILOT01",
    "DOMAIN": "LB",
    "USUBJID": "01-701-1115",
    "LBSEQ": 40.0,
    "LBTESTCD": "ALT",
    "LBTEST": "Alanine Aminotransferase",
    "LBCAT": "CHEMISTRY",
    "LBORRES": "15",
    "LBORRESU": "U/L",
    "LBORNRLO": "6",
    "LBORNRHI": "35",
    "LBSTRESC": "15",
    "LBSTRESN": 15.0,
    "LBSTRESU": "U/L",
    "LBSTNRLO": 6.0,
    "LBSTNRHI": 35.0,
    "LBNRIND": "NORMAL",
    "LBBLFL": "",
    "VISITNUM": 4.0,
    "VISIT": "WEEK 2",
    "VISITDY": 14.0,
    "LBDTC": "2012-12-13T14:05",
    "LBDY": 14.0
  },
  {
    "STUDYID": "CDISCPILOT01",
    "DOMAIN": "LB",
    "USUBJID": "01-701-1115",
    "LBSEQ": 75.0,
    "LBTESTCD": "ALT",
    "LBTEST": "Alanine Aminotransferase",
    "LBCAT": "CHEMISTRY",
    "LBORRES": "13",
    "LBORRESU": "U/L",
    "LBORNRLO": "6",
    "LBORNRHI": "35",
    "LBSTRESC": "13",
    "LBSTRESN": 13.0,
    "LBSTRESU": "U/L",
    "LBSTNRLO": 6.0,
    "LBSTNRHI": 35.0,
    "LBNRIND": "NORMAL",
    "LBBLFL": "",
    "VISITNUM": 5.0,
    "VISIT": "WEEK 4",
    "VISITDY": 28.0,
    "LBDTC": "2012-12-26T08:44",
    "LBDY": 27.0
  },
  {
    "STUDYID": "CDISCPILOT01",
    "DOMAIN": "LB",
    "USUBJID": "01-701-1115",
    "LBSEQ": 105.0,
    "LBTESTCD": "ALT",
    "LBTEST": "Alanine Aminotransferase",
    "LBCAT": "CHEMISTRY",
    "LBORRES": "16",
    "LBORRESU": "U/L",
    "LBORNRLO": "6",
    "LBORNRHI": "35",
    "LBSTRESC": "16",
    "LBSTRESN": 16.0,
    "LBSTRESU": "U/L",
    "LBSTNRLO": 6.0,
    "LBSTNRHI": 35.0,
    "LBNRIND": "NORMAL",
    "LBBLFL": "",
    "VISITNUM": 5.1,
    "VISIT": "UNSCHEDULED 5.1",
    "VISITDY": "",
    "LBDTC": "2012-12-28T09:27",
    "LBDY": 29.0
  },
  {
    "STUDYID": "CDISCPILOT01",
    "DOMAIN": "LB",
    "USUBJID": "01-701-1115",
    "LBSEQ": 120.0,
    "LBTESTCD": "ALT",
    "LBTEST": "Alanine Aminotransferase",
    "LBCAT": "CHEMISTRY",
    "LBORRES": "18",
    "LBORRESU": "U/L",
    "LBORNRLO": "6",
    "LBORNRHI": "35",
    "LBSTRESC": "18",
    "LBSTRESN": 18.0,
    "LBSTRESU": "U/L",
    "LBSTNRLO": 6.0,
    "LBSTNRHI": 35.0,
    "LBNRIND": "NORMAL",
    "LBBLFL": "",
    "VISITNUM": 7.0,
    "VISIT": "WEEK 6",
    "VISITDY": 42.0,
    "LBDTC": "2013-01-10T15:20",
    "LBDY": 42.0
  },
  {
    "STUDYID": "CDISCPILOT01",
    "DOMAIN": "LB",
    "USUBJID": "01-701-1115",
    "LBSEQ": 150.0,
    "LBTESTCD": "ALT",
    "LBTEST": "Alanine Aminotransferase",
    "LBCAT": "CHEMISTRY",
    "LBORRES": "16",
    "LBORRESU": "U/L",
    "LBORNRLO": "6",
    "LBORNRHI": "35",
    "LBSTRESC": "16",
    "LBSTRESN": 16.0,
    "LBSTRESU": "U/L",
    "LBSTNRLO": 6.0,
    "LBSTNRHI": 35.0,
    "LBNRIND": "NORMAL",
    "LBBLFL": "",
    "VISITNUM": 8.0,
    "VISIT": "WEEK 8",
    "VISITDY": 56.0,
    "LBDTC": "2013-01-23T12:13",
    "LBDY": 55.0
  },
  {
    "STUDYID": "CDISCPILOT01",
    "DOMAIN": "LB",
    "USUBJID": "01-701-1115",
    "LBSEQ": 4.0,
    "LBTESTCD": "AST",
    "LBTEST": "Aspartate Aminotransferase",
    "LBCAT": "CHEMISTRY",
    "LBORRES": "26",
    "LBORRESU": "U/L",
    "LBORNRLO": "11",
    "LBORNRHI": "36",
    "LBSTRESC": "26",
    "LBSTRESN": 26.0,
    "LBSTRESU": "U/L",
    "LBSTNRLO": 11.0,
    "LBSTNRHI": 36.0,
    "LBNRIND": "NORMAL",
    "LBBLFL": "Y",
    "VISITNUM": 1.0,
    "VISIT": "SCREENING 1",
    "VISITDY": -7.0,
    "LBDTC": "2012-11-23T11:20",
    "LBDY": -7.0
  },
  {
    "STUDYID": "CDISCPILOT01",
    "DOMAIN": "LB",
    "USUBJID": "01-701-1115",
    "LBSEQ": 41.0,
    "LBTESTCD": "AST",
    "LBTEST": "Aspartate Aminotransferase",
    "LBCAT": "CHEMISTRY",
    "LBORRES": "25",
    "LBORRESU": "U/L",
    "LBORNRLO": "11",
    "LBORNRHI": "36",
    "LBSTRESC": "25",
    "LBSTRESN": 25.0,
    "LBSTRESU": "U/L",
    "LBSTNRLO": 11.0,
    "LBSTNRHI": 36.0,
    "LBNRIND": "NORMAL",
    "LBBLFL": "",
    "VISITNUM": 4.0,
    "VISIT": "WEEK 2",
    "VISITDY": 14.0,
    "LBDTC": "2012-12-13T14:05",
    "LBDY": 14.0
  },
  {
    "STUDYID": "CDISCPILOT01",
    "DOMAIN": "LB",
    "USUBJID": "01-701-1115",
    "LBSEQ": 76.0,
    "LBTESTCD": "AST",
    "LBTEST": "Aspartate Aminotransferase",
    "LBCAT": "CHEMISTRY",
    "LBORRES": "20",
    "LBORRESU": "U/L",
    "LBORNRLO": "11",
    "LBORNRHI": "36",
    "LBSTRESC": "20",
    "LBSTRESN": 20.0,
    "LBSTRESU": "U/L",
    "LBSTNRLO": 11.0,
    "LBSTNRHI": 36.0,
    "LBNRIND": "NORMAL",
    "LBBLFL": "",
    "VISITNUM": 5.0,
    "VISIT": "WEEK 4",
    "VISITDY": 28.0,
    "LBDTC": "2012-12-26T08:44",
    "LBDY": 27.0
  },
  {
    "STUDYID": "CDISCPILOT01",
    "DOMAIN": "LB",
    "USUBJID": "01-701-1115",
    "LBSEQ": 106.0,
    "LBTESTCD": "AST",
    "LBTEST": "Aspartate Aminotransferase",
    "LBCAT": "CHEMISTRY",
    "LBORRES": "23",
    "LBORRESU": "U/L",
    "LBORNRLO": "11",
    "LBORNRHI": "36",
    "LBSTRESC": "23",
    "LBSTRESN": 23.0,
    "LBSTRESU": "U/L",
    "LBSTNRLO": 11.0,
    "LBSTNRHI": 36.0,
    "LBNRIND": "NORMAL",
    "LBBLFL": "",
    "VISITNUM": 5.1,
    "VISIT": "UNSCHEDULED 5.1",
    "VISITDY": "",
    "LBDTC": "2012-12-28T09:27",
    "LBDY": 29.0
  },
  {
    "STUDYID": "CDISCPILOT01",
    "DOMAIN": "LB",
    "USUBJID": "01-701-1115",
    "LBSEQ": 121.0,
    "LBTESTCD": "AST",
    "LBTEST": "Aspartate Aminotransferase",
    "LBCAT": "CHEMISTRY",
    "LBORRES": "25",
    "LBORRESU": "U/L",
    "LBORNRLO": "11",
    "LBORNRHI": "36",
    "LBSTRESC": "25",
    "LBSTRESN": 25.0,
    "LBSTRESU": "U/L",
    "LBSTNRLO": 11.0,
    "LBSTNRHI": 36.0,
    "LBNRIND": "NORMAL",
    "LBBLFL": "",
    "VISITNUM": 7.0,
    "VISIT": "WEEK 6",
    "VISITDY": 42.0,
    "LBDTC": "2013-01-10T15:20",
    "LBDY": 42.0
  },
  {
    "STUDYID": "CDISCPILOT01",
    "DOMAIN": "LB",
    "USUBJID": "01-701-1115",
    "LBSEQ": 151.0,
    "LBTESTCD": "AST",
    "LBTEST": "Aspartate Aminotransferase",
    "LBCAT": "CHEMISTRY",
    "LBORRES": "25",
    "LBORRESU": "U/L",
    "LBORNRLO": "11",
    "LBORNRHI": "36",
    "LBSTRESC": "25",
    "LBSTRESN": 25.0,
    "LBSTRESU": "U/L",
    "LBSTNRLO": 11.0,
    "LBSTNRHI": 36.0,
    "LBNRIND": "NORMAL",
    "LBBLFL": "",
    "VISITNUM": 8.0,
    "VISIT": "WEEK 8",
    "VISITDY": 56.0,
    "LBDTC": "2013-01-23T12:13",
    "LBDY": 55.0
  }
]