[
  {
    "STUDYID": "CDISCPILOT01",
    "RDOMAIN": "AE",
    "USUBJID": "01-701-1015",
    "IDVAR": "AESEQ",
    "IDVARVAL": "1",
    "QNAM": "AETRTEM",
    "QLABEL": "TREATMENT EMERGENT FLAG",
    "QVAL": "Y",
    "QORIG": "DERIVED",
    "QEVAL": "CLINICAL STUDY SPONSOR"
  },
  {
    "STUDYID": "CDISCPILOT01",
    "RDOMAIN": "AE",
    "USUBJID": "01-701-1015",
    "IDVAR": "AESEQ",
    "IDVARVAL": "2",
    "QNAM": "AETRTEM",
    "QLABEL": "TREATMENT EMERGENT FLAG",
    "QVAL": "Y",
    "QORIG": "DERIVED",
    "QEVAL": "CLINICAL STUDY SPONSOR"
  },
  {
    "STUDYID": "CDISCPILOT01",
    "RDOMAIN": "AE",
    "USUBJID": "01-701-1015",
    "IDVAR": "AESEQ",
    "IDVARVAL": "3",
    "QNAM": "AETRTEM",
    "QLABEL": "TREATMENT EMERGENT FLAG",
    "QVAL": "Y",
    "QORIG": "DERIVED",
    "QEVAL": "CLINICAL STUDY SPONSOR"
  },
  {
    "STUDYID": "CDISCPILOT01",
    "RDOMAIN": "AE",
    "USUBJID": "01-701-1023",
    "IDVAR": "AESEQ",
    "IDVARVAL": "1",
    "QNAM": "AETRTEM",
    "QLABEL": "TREATMENT EMERGENT FLAG",
    "QVAL": "Y",
    "QORIG": "DERIVED",
    "QEVAL": "CLINICAL STUDY SPONSOR"
  },
  {
    "STUDYID": "CDISCPILOT01",
    "RDOMAIN": "AE",
    "USUBJID": "01-701-1023",
    "IDVAR": "AESEQ",
    "IDVARVAL": "2",
    "QNAM": "AETRTEM",
    "QLABEL": "TREATMENT EMERGENT FLAG",
    "QVAL": "Y",
    "QORIG": "DERIVED",
    "QEVAL": "CLINICAL STUDY SPONSOR"
  },
  {
    "STUDYID": "CDISCPILOT01",
    "RDOMAIN": "AE",
    "USUBJID": "01-701-1023",
    "IDVAR": "AESEQ",
    "IDVARVAL": "3",
    "QNAM": "AETRTEM",
    "QLABEL": "TREATMENT EMERGENT FLAG",
    "QVAL": "Y",
    "QORIG": "DERIVED",
    "QEVAL": "CLINICAL STUDY SPONSOR"
  },
  {
    "STUDYID": "CDISCPILOT01",
    "RDOMAIN": "AE",
    "USUBJID": "01-701-1023",
    "IDVAR": "AESEQ",
    "IDVARVAL": "4",
    "QNAM": "AETRTEM",
    "QLABEL": "TREATMENT EMERGENT FLAG",
    "QVAL": "Y",
    "QORIG": "DERIVED",
    "QEVAL": "CLINICAL STUDY SPONSOR"
  },
  {
    "STUDYID": "CDISCPILOT01",
    "RDOMAIN": "AE",
    "USUBJID": "01-701-1028",
    "IDVAR": "AESEQ",
    "IDVARVAL": "1",
    "QNAM": "AETRTEM",
    "QLABEL": "TREATMENT EMERGENT FLAG",
    "QVAL": "Y",
    "QORIG": "DERIVED",
    "QEVAL": "CLINICAL STUDY SPONSOR"
  },
  {
    "STUDYID": "CDISCPILOT01",
    "RDOMAIN": "AE",
    "USUBJID": "01-701-1028",
    "IDVAR": "AESEQ",
    "IDVARVAL": "2",
    "QNAM": "AETRTEM",
    "QLABEL": "TREATMENT EMERGENT FLAG",
    "QVAL": "Y",
    "QORIG": "DERIVED",
    "QEVAL": "CLINICAL STUDY SPONSOR"
  },
  {
    "STUDYID": "CDISCPILOT01",
    "RDOMAIN": "AE",
    "USUBJID": "01-701-1034",
    "IDVAR": "AESEQ",
    "IDVARVAL": "1",
    "QNAM": "AETRTEM",
    "QLABEL": "TREATMENT EMERGENT FLAG",
    "QVAL": "Y",
    "QORIG": "DERIVED",
    "QEVAL": "CLINICAL STUDY SPONSOR"
  },
  {
    "STUDYID": "CDISCPILOT01",
    "RDOMAIN": "AE",
    "USUBJID": "01-701-1034",
    "IDVAR": "AESEQ",
    "IDVARVAL": "2",
    "QNAM": "AETRTEM",
    "QLABEL": "TREATMENT EMERGENT FLAG",
    "QVAL": "Y",
    "QORIG": "DERIVED",
    "QEVAL": "CLINICAL STUDY SPONSOR"
  },
  {
    "STUDYID": "CDISCPILOT01",
    "RDOMAIN": "AE",
    "USUBJID": "01-701-1047",
    "IDVAR": "AESEQ",
    "IDVARVAL": "1",
    "QNAM": "AETRTEM",
    "QLABEL": "TREATMENT EMERGENT FLAG",
    "QVAL": "Y",
    "QORIG": "DERIVED",
    "QEVAL": "CLINICAL STUDY SPONSOR"
  },
  {
    "STUDYID": "CDISCPILOT01",
    "RDOMAIN": "AE",
    "USUBJID": "01-701-1047",
    "IDVAR": "AESEQ",
    "IDVARVAL": "2",
    "QNAM": "AETRTEM",
    "QLABEL": "TREATMENT EMERGENT FLAG",
    "QVAL": "Y",
    "QORIG": "DERIVED",
    "QEVAL": "CLINICAL STUDY SPONSOR"
  },
  {
    "STUDYID": "CDISCPILOT01",
    "RDOMAIN": "AE",
    "USUBJID": "01-701-1047",
    "IDVAR": "AESEQ",
    "IDVARVAL": "3",
    "QNAM": "AETRTEM",
    "QLABEL": "TREATMENT EMERGENT FLAG",
    "QVAL": "Y",
    "QORIG": "DERIVED",
    "QEVAL": "CLINICAL STUDY SPONSOR"
  },
  {
    "STUDYID": "CDISCPILOT01",
    "RDOMAIN": "AE",
    "USUBJID": "01-701-1047",
    "IDVAR": "AESEQ",
    "IDVARVAL": "4",
    "QNAM": "AETRTEM",
    "QLABEL": "TREATMENT EMERGENT FLAG",
    "QVAL": "Y",
    "QORIG": "DERIVED",
    "QEVAL": "CLINICAL STUDY SPONSOR"
  },
  {
    "STUDYID": "CDISCPILOT01",
    "RDOMAIN": "AE",
    "USUBJID": "01-701-1097",
    "IDVAR": "AESEQ",
    "IDVARVAL": "1",
    "QNAM": "AETRTEM",
    "QLABEL": "TREATMENT EMERGENT FLAG",
    "QVAL": "Y",
    "QORIG": "DERIVED",
    "QEVAL": "CLINICAL STUDY SPONSOR"
  },
  {
    "STUDYID": "CDISCPILOT01",
    "RDOMAIN": "AE",
    "USUBJID": "01-701-1097",
    "IDVAR": "AESEQ",
    "IDVARVAL": "10",
    "QNAM": "AETRTEM",
    "QLABEL": "TREATMENT EMERGENT FLAG",
    "QVAL": "Y",
    "QORIG": "DERIVED",
    "QEVAL": "CLINICAL STUDY SPONSOR"
  },
  {
    "STUDYID": "CDISCPILOT01",
    "RDOMAIN": "AE",
    "USUBJID": "01-701-1097",
    "IDVAR": "AESEQ",
    "IDVARVAL": "2",
    "QNAM": "AETRTEM",
    "QLABEL": "TREATMENT EMERGENT FLAG",
    "QVAL": "Y",
    "QORIG": "DERIVED",
    "QEVAL": "CLINICAL STUDY SPONSOR"
  },
  {
    "STUDYID": "CDISCPILOT01",
    "RDOMAIN": "AE",
    "USUBJID": "01-701-1097",
    "IDVAR": "AESEQ",
    "IDVARVAL": "3",
    "QNAM": "AETRTEM",
    "QLABEL": "TREATMENT EMERGENT FLAG",
    "QVAL": "Y",
    "QORIG": "DERIVED",
    "QEVAL": "CLINICAL STUDY SPONSOR"
  },
  {
    "STUDYID": "CDISCPILOT01",
    "RDOMAIN": "AE",
    "USUBJID": "01-701-1097",
    "IDVAR": "AESEQ",
    "IDVARVAL": "4",
    "QNAM": "AETRTEM",
    "QLABEL": "TREATMENT EMERGENT FLAG",
    "QVAL": "Y",
    "QORIG": "DERIVED",
    "QEVAL": "CLINICAL STUDY SPONSOR"
  },
  {
    "STUDYID": "CDISCPILOT01",
    "RDOMAIN": "AE",
    "USUBJID": "01-701-1097",
    "IDVAR": "AESEQ",
    "IDVARVAL": "5",
    "QNAM": "AETRTEM",
    "QLABEL": "TREATMENT EMERGENT FLAG",
    "QVAL": "Y",
    "QORIG": "DERIVED",
    "QEVAL": "CLINICAL STUDY SPONSOR"
  },
  {
    "STUDYID": "CDISCPILOT01",
    "RDOMAIN": "AE",
    "USUBJID": "01-701-1097",
    "IDVAR": "AESEQ",
    "IDVARVAL": "6",
    "QNAM": "AETRTEM",
    "QLABEL": "TREATMENT EMERGENT FLAG",
    "QVAL": "Y",
    "QORIG": "DERIVED",
    "QEVAL": "CLINICAL STUDY SPONSOR"
  },
  {
    "STUDYID": "CDISCPILOT01",
    "RDOMAIN": "AE",
    "USUBJID": "01-701-1097",
    "IDVAR": "AESEQ",
    "IDVARVAL": "7",
    "QNAM": "AETRTEM",
    "QLABEL": "TREATMENT EMERGENT FLAG",
    "QVAL": "Y",
    "QORIG": "DERIVED",
    "QEVAL": "CLINICAL STUDY SPONSOR"
  },
  {
    "STUDYID": "CDISCPILOT01",
    "RDOMAIN": "AE",
    "USUBJID": "01-701-1097",
    "IDVAR": "AESEQ",
    "IDVARVAL": "8",
    "QNAM": "AETRTEM",
    "QLABEL": "TREATMENT EMERGENT FLAG",
    "QVAL": "Y",
    "QORIG": "DERIVED",
    "QEVAL": "CLINICAL STUDY SPONSOR"
  },
  {
    "STUDYID": "CDISCPILOT01",
    "RDOMAIN": "AE",
    "USUBJID": "01-701-1097",
    "IDVAR": "AESEQ",
    "IDVARVAL": "9",
    "QNAM": "AETRTEM",
    "QLABEL": "TREATMENT EMERGENT FLAG",
    "QVAL": "Y",
    "QORIG": "DERIVED",
    "QEVAL": "CLINICAL STUDY SPONSOR"
  },
  {
    "STUDYID": "CDISCPILOT01",
    "RDOMAIN": "AE",
    "USUBJID": "01-701-1111",
    "IDVAR": "AESEQ",
    "IDVARVAL": "1",
    "QNAM": "AETRTEM",
    "QLABEL": "TREATMENT EMERGENT FLAG",
    "QVAL": "N",
    "QORIG": "DERIVED",
    "QEVAL": "CLINICAL STUDY SPONSOR"
  },
  {
    "STUDYID": "CDISCPILOT01",
    "RDOMAIN": "AE",
    "USUBJID": "01-701-1111",
    "IDVAR": "AESEQ",
    "IDVARVAL": "2",
    "QNAM": "AETRTEM",
    "QLABEL": "TREATMENT EMERGENT FLAG",
    "QVAL": "N",
    "QORIG": "DERIVED",
    "QEVAL": "CLINICAL STUDY SPONSOR"
  },
  {
    "STUDYID": "CDISCPILOT01",
    "RDOMAIN": "AE",
    "USUBJID": "01-701-1111",
    "IDVAR": "AESEQ",
    "IDVARVAL": "3",
    "QNAM": "AETRTEM",
    "QLABEL": "TREATMENT EMERGENT FLAG",
    "QVAL": "N",
    "QORIG": "DERIVED",
    "QEVAL": "CLINICAL STUDY SPONSOR"
  },
  {
    "STUDYID": "CDISCPILOT01",
    "RDOMAIN": "AE",
    "USUBJID": "01-701-1111",
    "IDVAR": "AESEQ",
    "IDVARVAL": "4",
    "QNAM": "AETRTEM",
    "QLABEL": "TREATMENT EMERGENT FLAG",
    "QVAL": "N",
    "QORIG": "DERIVED",
    "QEVAL": "CLINICAL STUDY SPONSOR"
  },
  {
    "STUDYID": "CDISCPILOT01",
    "RDOMAIN": "AE",
    "USUBJID": "01-701-1111",
    "IDVAR": "AESEQ",
    "IDVARVAL": "5",
    "QNAM": "AETRTEM",
    "QLABEL": "TREATMENT EMERGENT FLAG",
    "QVAL": "N",
    "QORIG": "DERIVED",
    "QEVAL": "CLINICAL STUDY SPONSOR"
  },
  {
    "STUDYID": "CDISCPILOT01",
    "RDOMAIN": "AE",
    "USUBJID": "01-701-1111",
    "IDVAR": "AESEQ",
    "IDVARVAL": "6",
    "QNAM": "AETRTEM",
    "QLABEL": "TREATMENT EMERGENT FLAG",
    "QVAL": "Y",
    "QORIG": "DERIVED",
    "QEVAL": "CLINICAL STUDY SPONSOR"
  },
  {
    "STUDYID": "CDISCPILOT01",
    "RDOMAIN": "AE",
    "USUBJID": "01-701-1111",
    "IDVAR": "AESEQ",
    "IDVARVAL": "7",
    "QNAM": "AETRTEM",
    "QLABEL": "TREATMENT EMERGENT FLAG",
    "QVAL": "Y",
    "QORIG": "DERIVED",
    "QEVAL": "CLINICAL STUDY SPONSOR"
  },
  {
    "STUDYID": "CDISCPILOT01",
    "RDOMAIN": "AE",
    "USUBJID": "01-701-1111",
    "IDVAR": "AESEQ",
    "IDVARVAL": "8",
    "QNAM": "AETRTEM",
    "QLABEL": "TREATMENT EMERGENT FLAG",
    "QVAL": "Y",
    "QORIG": "DERIVED",
    "QEVAL": "CLINICAL STUDY SPONSOR"
  },
  {
    "STUDYID": "CDISCPILOT01",
    "RDOMAIN": "AE",
    "USUBJID": "01-701-1115",
    "IDVAR": "AESEQ",
    "IDVARVAL": "1",
    "QNAM": "AETRTEM",
    "QLABEL": "TREATMENT EMERGENT FLAG",
    "QVAL": "Y",
    "QORIG": "DERIVED",
    "QEVAL": "CLINICAL STUDY SPONSOR"
  },
  {
    "STUDYID": "CDISCPILOT01",
    "RDOMAIN": "AE",
    "USUBJID": "01-701-1115",
    "IDVAR": "AESEQ",
    "IDVARVAL": "2",
    "QNAM": "AETRTEM",
    "QLABEL": "TREATMENT EMERGENT FLAG",
    "QVAL": "Y",
    "QORIG": "DERIVED",
    "QEVAL": "CLINICAL STUDY SPONSOR"
  },
  {
    "STUDYID": "CDISCPILOT01",
    "RDOMAIN": "AE",
    "USUBJID": "01-701-1115",
    "IDVAR": "AESEQ",
    "IDVARVAL": "3",
    "QNAM": "AETRTEM",
    "QLABEL": "TREATMENT EMERGENT FLAG",
    "QVAL": "Y",
    "QORIG": "DERIVED",
    "QEVAL": "CLINICAL STUDY SPONSOR"
  },
  {
    "STUDYID": "CDISCPILOT01",
    "RDOMAIN": "AE",
    "USUBJID": "01-701-1115",
    "IDVAR": "AESEQ",
    "IDVARVAL": "4",
    "QNAM": "AETRTEM",
    "QLABEL": "TREATMENT EMERGENT FLAG",
    "QVAL": "Y",
    "QORIG": "DERIVED",
    "QEVAL": "CLINICAL STUDY SPONSOR"
  },
  {
    "STUDYID": "CDISCPILOT01",
    "RDOMAIN": "AE",
    "USUBJID": "01-701-1115",
    "IDVAR": "AESEQ",
    "IDVARVAL": "5",
    "QNAM": "AETRTEM",
    "QLABEL": "TREATMENT EMERGENT FLAG",
    "QVAL": "Y",
    "QORIG": "DERIVED",
    "QEVAL": "CLINICAL STUDY SPONSOR"
  },
  {
    "STUDYID": "CDISCPILOT01",
    "RDOMAIN": "AE",
    "USUBJID": "01-701-1115",
    "IDVAR": "AESEQ",
    "IDVARVAL": "6",
    "QNAM": "AETRTEM",
    "QLABEL": "TREATMENT EMERGENT FLAG",
    "QVAL": "Y",
    "QORIG": "DERIVED",
    "QEVAL": "CLINICAL STUDY SPONSOR"
  },
  {
    "STUDYID": "CDISCPILOT01",
    "RDOMAIN": "AE",
    "USUBJID": "01-701-1115",
    "IDVAR": "AESEQ",
    "IDVARVAL": "7",
    "QNAM": "AETRTEM",
    "QLABEL": "TREATMENT EMERGENT FLAG",
    "QVAL": "Y",
    "QORIG": "DERIVED",
    "QEVAL": "CLINICAL STUDY SPONSOR"
  },
  {
    "STUDYID": "CDISCPILOT01",
    "RDOMAIN": "AE",
    "USUBJID": "01-701-1115",
    "IDVAR": "AESEQ",
    "IDVARVAL": "8",
    "QNAM": "AETRTEM",
    "QLABEL": "TREATMENT EMERGENT FLAG",
    "QVAL": "Y",
    "QORIG": "DERIVED",
    "QEVAL": "CLINICAL STUDY SPONSOR"
  },
  {
    "STUDYID": "CDISCPILOT01",
    "RDOMAIN": "AE",
    "USUBJID": "01-701-1115",
    "IDVAR": "AESEQ",
    "IDVARVAL": "9",
    "QNAM": "AETRTEM",
    "QLABEL": "TREATMENT EMERGENT FLAG",
    "QVAL": "Y",
    "QORIG": "DERIVED",
    "QEVAL": "CLINICAL STUDY SPONSOR"
  }
]