[
  {
    "STUDYID": "CDISCPILOT01",
    "RDOMAIN": "DM",
    "USUBJID": "01-701-1015",
    "IDVAR": "",
    "IDVARVAL": "",
    "QNAM": "COMPLT16",
    "QLABEL": "Completers of Week 16 Population Flag",
    "QVAL": "Y",
    "QORIG": "DERIVED",
    "QEVAL": "CLINICAL STUDY SPONSOR"
  },
  {
    "STUDYID": "CDISCPILOT01",
    "RDOMAIN": "DM",
    "USUBJID": "01-701-1015",
    "IDVAR": "",
    "IDVARVAL": "",
    "QNAM": "COMPLT24",
    "QLABEL": "Completers of Week 24 Population Flag",
    "QVAL": "Y",
    "QORIG": "DERIVED",
    "QEVAL": "CLINICAL STUDY SPONSOR"
  },
  {
    "STUDYID": "CDISCPILOT01",
    "RDOMAIN": "DM",
    "USUBJID": "01-701-1015",
    "IDVAR": "",
    "IDVARVAL": "",
    "QNAM": "COMPLT8",
    "QLABEL": "Completers of Week 8 Population Flag",
    "QVAL": "Y",
    "QORIG": "DERIVED",
    "QEVAL": "CLINICAL STUDY SPONSOR"
  },
  {
    "STUDYID": "CDISCPILOT01",
    "RDOMAIN": "DM",
    "USUBJID": "01-701-1015",
    "IDVAR": "",
    "IDVARVAL": "",
    "QNAM": "EFFICACY",
    "QLABEL": "Efficacy Population Flag",
    "QVAL": "Y",
    "QORIG": "DERIVED",
    "QEVAL": "CLINICAL STUDY SPONSOR"
  },
  {
    "STUDYID": "CDISCPILOT01",
    "RDOMAIN": "DM",
    "USUBJID": "01-701-1015",
    "IDVAR": "",
    "IDVARVAL": "",
    "QNAM": "ITT",
    "QLABEL": "Intent to Treat Population Flag",
    "QVAL": "Y",
    "QORIG": "DERIVED",
    "QEVAL": "CLINICAL STUDY SPONSOR"
  },
  {
    "STUDYID": "CDISCPILOT01",
    "RDOMAIN": "DM",
    "USUBJID": "01-701-1015",
    "IDVAR": "",
    "IDVARVAL": "",
    "QNAM": "SAFETY",
    "QLABEL": "Safety Population Flag",
    "QVAL": "Y",
    "QORIG": "DERIVED",
    "QEVAL": "CLINICAL STUDY SPONSOR"
  },
  {
    "STUDYID": "CDISCPILOT01",
    "RDOMAIN": "DM",
    "USUBJID": "01-701-1023",
    "IDVAR": "",
    "IDVARVAL": "",
    "QNAM": "EFFICACY",
    "QLABEL": "Efficacy Population Flag",
    "QVAL": "Y",
    "QORIG": "DERIVED",
    "QEVAL": "CLINICAL STUDY SPONSOR"
  },
  {
    "STUDYID": "CDISCPILOT01",
    "RDOMAIN": "DM",
    "USUBJID": "01-701-1023",
    "IDVAR": "",
    "IDVARVAL": "",
    "QNAM": "ITT",
    "QLABEL": "Intent to Treat Population Flag",
    "QVAL": "Y",
    "QORIG": "DERIVED",
    "QEVAL": "CLINICAL STUDY SPONSOR"
  },
  {
    "STUDYID": "CDISCPILOT01",
    "RDOMAIN": "DM",
    "USUBJID": "01-701-1023",
    "IDVAR": "",
    "IDVARVAL": "",
    "QNAM": "SAFETY",
    "QLABEL": "Safety Population Flag",
    "QVAL": "Y",
    "QORIG": "DERIVED",
    "QEVAL": "CLINICAL STUDY SPONSOR"
  },
  {
    "STUDYID": "CDISCPILOT01",
    "RDOMAIN": "DM",
    "USUBJID": "01-701-1028",
    "IDVAR": "",
    "IDVARVAL": "",
    "QNAM": "COMPLT16",
    "QLABEL": "Completers of Week 16 Population Flag",
    "QVAL": "Y",
    "QORIG": "DERIVED",
    "QEVAL": "CLINICAL STUDY SPONSOR"
  },
  {
    "STUDYID": "CDISCPILOT01",
    "RDOMAIN": "DM",
    "USUBJID": "01-701-1028",
    "IDVAR": "",
    "IDVARVAL": "",
    "QNAM": "COMPLT24",
    "QLABEL": "Completers of Week 24 Population Flag",
    "QVAL": "Y",
    "QORIG": "DERIVED",
    "QEVAL": "CLINICAL STUDY SPONSOR"
  },
  {
    "STUDYID": "CDISCPILOT01",
    "RDOMAIN": "DM",
    "USUBJID": "01-701-1028",
    "IDVAR": "",
    "IDVARVAL": "",
    "QNAM": "COMPLT8",
    "QLABEL": "Completers of Week 8 Population Flag",
    "QVAL": "Y",
    "QORIG": "DERIVED",
    "QEVAL": "CLINICAL STUDY SPONSOR"
  },
  {
    "STUDYID": "CDISCPILOT01",
    "RDOMAIN": "DM",
    "USUBJID": "01-701-1028",
    "IDVAR": "",
    "IDVARVAL": "",
    "QNAM": "EFFICACY",
    "QLABEL": "Efficacy Population Flag",
    "QVAL": "Y",
    "QORIG": "DERIVED",
    "QEVAL": "CLINICAL STUDY SPONSOR"
  },
  {
    "STUDYID": "CDISCPILOT01",
    "RDOMAIN": "DM",
    "USUBJID": "01-701-1028",
    "IDVAR": "",
    "IDVARVAL": "",
    "QNAM": "ITT",
    "QLABEL": "Intent to Treat Population Flag",
    "QVAL": "Y",
    "QORIG": "DERIVED",
    "QEVAL": "CLINICAL STUDY SPONSOR"
  },
  {
    "STUDYID": "CDISCPILOT01",
    "RDOMAIN": "DM",
    "USUBJID": "01-701-1028",
    "IDVAR": "",
    "IDVARVAL": "",
    "QNAM": "SAFETY",
    "QLABEL": "Safety Population Flag",
    "QVAL": "Y",
    "QORIG": "DERIVED",
    "QEVAL": "CLINICAL STUDY SPONSOR"
  },
  {
    "STUDYID": "CDISCPILOT01",
    "RDOMAIN": "DM",
    "USUBJID": "01-701-1033",
    "IDVAR": "",
    "IDVARVAL": "",
    "QNAM": "EFFICACY",
    "QLABEL": "Efficacy Population Flag",
    "QVAL": "Y",
    "QORIG": "DERIVED",
    "QEVAL": "CLINICAL STUDY SPONSOR"
  },
  {
    "STUDYID": "CDISCPILOT01",
    "RDOMAIN": "DM",
    "USUBJID": "01-701-1033",
    "IDVAR": "",
    "IDVARVAL": "",
    "QNAM": "ITT",
    "QLABEL": "Intent to Treat Population Flag",
    "QVAL": "Y",
    "QORIG": "DERIVED",
    "QEVAL": "CLINICAL STUDY SPONSOR"
  },
  {
    "STUDYID": "CDISCPILOT01",
    "RDOMAIN": "DM",
    "USUBJID": "01-701-1033",
    "IDVAR": "",
    "IDVARVAL": "",
    "QNAM": "SAFETY",
    "QLABEL": "Safety Population Flag",
    "QVAL": "Y",
    "QORIG": "DERIVED",
    "QEVAL": "CLINICAL STUDY SPONSOR"
  },
  {
    "STUDYID": "CDISCPILOT01",
    "RDOMAIN": "DM",
    "USUBJID": "01-701-1034",
    "IDVAR": "",
    "IDVARVAL": "",
    "QNAM": "COMPLT16",
    "QLABEL": "Completers of Week 16 Population Flag",
    "QVAL": "Y",
    "QORIG": "DERIVED",
    "QEVAL": "CLINICAL STUDY SPONSOR"
  },
  {
    "STUDYID": "CDISCPILOT01",
    "RDOMAIN": "DM",
    "USUBJID": "01-701-1034",
    "IDVAR": "",
    "IDVARVAL": "",
    "QNAM": "COMPLT24",
    "QLABEL": "Completers of Week 24 Population Flag",
    "QVAL": "Y",
    "QORIG": "DERIVED",
    "QEVAL": "CLINICAL STUDY SPONSOR"
  },
  {
    "STUDYID": "CDISCPILOT01",
    "RDOMAIN": "DM",
    "USUBJID": "01-701-1034",
    "IDVAR": "",
    "IDVARVAL": "",
    "QNAM": "COMPLT8",
    "QLABEL": "Completers of Week 8 Population Flag",
    "QVAL": "Y",
    "QORIG": "DERIVED",
    "QEVAL": "CLINICAL STUDY SPONSOR"
  },
  {
    "STUDYID": "CDISCPILOT01",
    "RDOMAIN": "DM",
    "USUBJID": "01-701-1034",
    "IDVAR": "",
    "IDVARVAL": "",
    "QNAM": "EFFICACY",
    "QLABEL": "Efficacy Population Flag",
    "QVAL": "Y",
    "QORIG": "DERIVED",
    "QEVAL": "CLINICAL STUDY SPONSOR"
  },
  {
    "STUDYID": "CDISCPILOT01",
    "RDOMAIN": "DM",
    "USUBJID": "01-701-1034",
    "IDVAR": "",
    "IDVARVAL": "",
    "QNAM": "ITT",
    "QLABEL": "Intent to Treat Population Flag",
    "QVAL": "Y",
    "QORIG": "DERIVED",
    "QEVAL": "CLINICAL STUDY SPONSOR"
  },
  {
    "STUDYID": "CDISCPILOT01",
    "RDOMAIN": "DM",
    "USUBJID": "01-701-1034",
    "IDVAR": "",
    "IDVARVAL": "",
    "QNAM": "SAFETY",
    "QLABEL": "Safety Population Flag",
    "QVAL": "Y",
    "QORIG": "DERIVED",
    "QEVAL": "CLINICAL STUDY SPONSOR"
  },
  {
    "STUDYID": "CDISCPILOT01",
    "RDOMAIN": "DM",
    "USUBJID": "01-701-1047",
    "IDVAR": "",
    "IDVARVAL": "",
    "QNAM": "EFFICACY",
    "QLABEL": "Efficacy Population Flag",
    "QVAL": "Y",
    "QORIG": "DERIVED",
    "QEVAL": "CLINICAL STUDY SPONSOR"
  },
  {
    "STUDYID": "CDISCPILOT01",
    "RDOMAIN": "DM",
    "USUBJID": "01-701-1047",
    "IDVAR": "",
    "IDVARVAL": "",
    "QNAM": "ITT",
    "QLABEL": "Intent to Treat Population Flag",
    "QVAL": "Y",
    "QORIG": "DERIVED",
    "QEVAL": "CLINICAL STUDY SPONSOR"
  },
  {
    "STUDYID": "CDISCPILOT01",
    "RDOMAIN": "DM",
    "USUBJID": "01-701-1047",
    "IDVAR": "",
    "IDVARVAL": "",
    "QNAM": "SAFETY",
    "QLABEL": "Safety Population Flag",
    "QVAL": "Y",
    "QORIG": "DERIVED",
    "QEVAL": "CLINICAL STUDY SPONSOR"
  },
  {
    "STUDYID": "CDISCPILOT01",
    "RDOMAIN": "DM",
    "USUBJID": "01-701-1097",
    "IDVAR": "",
    "IDVARVAL": "",
    "QNAM": "COMPLT16",
    "QLABEL": "Completers of Week 16 Population Flag",
    "QVAL": "Y",
    "QORIG": "DERIVED",
    "QEVAL": "CLINICAL STUDY SPONSOR"
  },
  {
    "STUDYID": "CDISCPILOT01",
    "RDOMAIN": "DM",
    "USUBJID": "01-701-1097",
    "IDVAR": "",
    "IDVARVAL": "",
    "QNAM": "COMPLT24",
    "QLABEL": "Completers of Week 24 Population Flag",
    "QVAL": "Y",
    "QORIG": "DERIVED",
    "QEVAL": "CLINICAL STUDY SPONSOR"
  },
  {
    "STUDYID": "CDISCPILOT01",
    "RDOMAIN": "DM",
    "USUBJID": "01-701-1097",
    "IDVAR": "",
    "IDVARVAL": "",
    "QNAM": "COMPLT8",
    "QLABEL": "Completers of Week 8 Population Flag",
    "QVAL": "Y",
    "QORIG": "DERIVED",
    "QEVAL": "CLINICAL STUDY SPONSOR"
  },
  {
    "STUDYID": "CDISCPILOT01",
    "RDOMAIN": "DM",
    "USUBJID": "01-701-1097",
    "IDVAR": "",
    "IDVARVAL": "",
    "QNAM": "EFFICACY",
    "QLABEL": "Efficacy Population Flag",
    "QVAL": "Y",
    "QORIG": "DERIVED",
    "QEVAL": "CLINICAL STUDY SPONSOR"
  },
  {
    "STUDYID": "CDISCPILOT01",
    "RDOMAIN": "DM",
    "USUBJID": "01-701-1097",
    "IDVAR": "",
    "IDVARVAL": "",
    "QNAM": "ITT",
    "QLABEL": "Intent to Treat Population Flag",
    "QVAL": "Y",
    "QORIG": "DERIVED",
    "QEVAL": "CLINICAL STUDY SPONSOR"
  },
  {
    "STUDYID": "CDISCPILOT01",
    "RDOMAIN": "DM",
    "USUBJID": "01-701-1097",
    "IDVAR": "",
    "IDVARVAL": "",
    "QNAM": "SAFETY",
    "QLABEL": "Safety Population Flag",
    "QVAL": "Y",
    "QORIG": "DERIVED",
    "QEVAL": "CLINICAL STUDY SPONSOR"
  },
  {
    "STUDYID": "CDISCPILOT01",
    "RDOMAIN": "DM",
    "USUBJID": "01-701-1111",
    "IDVAR": "",
    "IDVARVAL": "",
    "QNAM": "EFFICACY",
    "QLABEL": "Efficacy Population Flag",
    "QVAL": "Y",
    "QORIG": "DERIVED",
    "QEVAL": "CLINICAL STUDY SPONSOR"
  },
  {
    "STUDYID": "CDISCPILOT01",
    "RDOMAIN": "DM",
    "USUBJID": "01-701-1111",
    "IDVAR": "",
    "IDVARVAL": "",
    "QNAM": "ITT",
    "QLABEL": "Intent to Treat Population Flag",
    "QVAL": "Y",
    "QORIG": "DERIVED",
    "QEVAL": "CLINICAL STUDY SPONSOR"
  },
  {
    "STUDYID": "CDISCPILOT01",
    "RDOMAIN": "DM",
    "USUBJID": "01-701-1111",
    "IDVAR": "",
    "IDVARVAL": "",
    "QNAM": "SAFETY",
    "QLABEL": "Safety Population Flag",
    "QVAL": "Y",
    "QORIG": "DERIVED",
    "QEVAL": "CLINICAL STUDY SPONSOR"
  },
  {
    "STUDYID": "CDISCPILOT01",
    "RDOMAIN": "DM",
    "USUBJID": "01-701-1115",
    "IDVAR": "",
    "IDVARVAL": "",
    "QNAM": "COMPLT8",
    "QLABEL": "Completers of Week 8 Population Flag",
    "QVAL": "Y",
    "QORIG": "DERIVED",
    "QEVAL": "CLINICAL STUDY SPONSOR"
  },
  {
    "STUDYID": "CDISCPILOT01",
    "RDOMAIN": "DM",
    "USUBJID": "01-701-1115",
    "IDVAR": "",
    "IDVARVAL": "",
    "QNAM": "EFFICACY",
    "QLABEL": "Efficacy Population Flag",
    "QVAL": "Y",
    "QORIG": "DERIVED",
    "QEVAL": "CLINICAL STUDY SPONSOR"
  },
  {
    "STUDYID": "CDISCPILOT01",
    "RDOMAIN": "DM",
    "USUBJID": "01-701-1115",
    "IDVAR": "",
    "IDVARVAL": "",
    "QNAM": "ITT",
    "QLABEL": "Intent to Treat Population Flag",
    "QVAL": "Y",
    "QORIG": "DERIVED",
    "QEVAL": "CLINICAL STUDY SPONSOR"
  },
  {
    "STUDYID": "CDISCPILOT01",
    "RDOMAIN": "DM",
    "USUBJID": "01-701-1115",
    "IDVAR": "",
    "IDVARVAL": "",
    "QNAM": "SAFETY",
    "QLABEL": "Safety Population Flag",
    "QVAL": "Y",
    "QORIG": "DERIVED",
    "QEVAL": "CLINICAL STUDY SPONSOR"
  }
]